subj_idx,isblow,pump_idx,choice,reward,reaction_time,trial,HE,PCPP
783311.0,0.0,1.0,1.0,1.0,655.0,1.0,0.0,0.0
783311.0,0.0,2.0,1.0,2.0,417.0,1.0,0.0,0.0
783311.0,0.0,3.0,1.0,3.0,395.0,1.0,0.0,0.0
783311.0,0.0,4.0,1.0,4.0,446.0,1.0,0.0,0.0
783311.0,0.0,5.0,1.0,5.0,344.0,1.0,0.0,1.0
783311.0,1.0,6.0,1.0,0.0,305.0,1.0,0.0,0.0
783311.0,0.0,1.0,1.0,1.0,560.0,2.0,5.0,0.0
783311.0,0.0,2.0,1.0,2.0,315.0,2.0,5.0,0.0
783311.0,0.0,3.0,1.0,3.0,408.0,2.0,5.0,0.0
783311.0,0.0,4.0,1.0,4.0,297.0,2.0,5.0,0.0
783311.0,0.0,5.0,1.0,5.0,472.0,2.0,5.0,2.0
783311.0,0.0,6.0,0.0,6.0,383.0,2.0,5.0,0.0
783311.0,0.0,1.0,1.0,1.0,621.0,3.0,3.0,0.0
783311.0,0.0,2.0,1.0,2.0,451.0,3.0,3.0,0.0
783311.0,0.0,3.0,1.0,3.0,374.0,3.0,3.0,0.0
783311.0,0.0,4.0,1.0,4.0,554.0,3.0,3.0,0.0
783311.0,0.0,5.0,1.0,5.0,315.0,3.0,3.0,2.0
783311.0,0.0,6.0,0.0,6.0,338.0,3.0,3.0,0.0
783311.0,0.0,1.0,1.0,1.0,770.0,4.0,3.0,0.0
783311.0,0.0,2.0,1.0,2.0,396.0,4.0,3.0,0.0
783311.0,0.0,3.0,1.0,3.0,498.0,4.0,3.0,0.0
783311.0,0.0,4.0,1.0,4.0,595.0,4.0,3.0,1.0
783311.0,1.0,5.0,1.0,0.0,1021.0,4.0,3.0,0.0
783311.0,0.0,1.0,1.0,1.0,1097.0,5.0,5.0,0.0
783311.0,0.0,2.0,1.0,2.0,582.0,5.0,5.0,0.0
783311.0,0.0,3.0,1.0,3.0,465.0,5.0,5.0,0.0
783311.0,0.0,4.0,1.0,4.0,356.0,5.0,5.0,2.0
783311.0,0.0,5.0,0.0,5.0,721.0,5.0,5.0,0.0
783311.0,0.0,1.0,1.0,1.0,738.0,6.0,3.0,0.0
783311.0,0.0,2.0,1.0,2.0,394.0,6.0,3.0,0.0
783311.0,0.0,3.0,1.0,3.0,420.0,6.0,3.0,0.0
783311.0,0.0,4.0,1.0,4.0,676.0,6.0,3.0,2.0
783311.0,0.0,5.0,0.0,5.0,420.0,6.0,3.0,0.0
783311.0,0.0,1.0,1.0,1.0,472.0,7.0,3.0,0.0
783311.0,0.0,2.0,1.0,2.0,297.0,7.0,3.0,0.0
783311.0,0.0,3.0,1.0,3.0,2939.0,7.0,3.0,2.0
783311.0,0.0,4.0,0.0,4.0,539.0,7.0,3.0,0.0
783311.0,0.0,1.0,1.0,1.0,2179.0,8.0,3.0,0.0
783311.0,0.0,2.0,1.0,2.0,490.0,8.0,3.0,0.0
783311.0,0.0,3.0,1.0,3.0,398.0,8.0,3.0,2.0
783311.0,0.0,4.0,0.0,4.0,378.0,8.0,3.0,0.0
783311.0,0.0,1.0,1.0,1.0,841.0,9.0,3.0,0.0
783311.0,0.0,2.0,1.0,2.0,742.0,9.0,3.0,0.0
783311.0,0.0,3.0,1.0,3.0,324.0,9.0,3.0,2.0
783311.0,0.0,4.0,0.0,4.0,332.0,9.0,3.0,0.0
783311.0,0.0,1.0,1.0,1.0,531.0,10.0,3.0,0.0
783311.0,0.0,2.0,1.0,2.0,419.0,10.0,3.0,0.0
783311.0,0.0,3.0,1.0,3.0,510.0,10.0,3.0,2.0
783311.0,0.0,4.0,0.0,4.0,1175.0,10.0,3.0,0.0
783311.0,0.0,1.0,1.0,1.0,668.0,11.0,3.0,0.0
783311.0,0.0,2.0,1.0,2.0,485.0,11.0,3.0,2.0
783311.0,0.0,3.0,0.0,3.0,505.0,11.0,3.0,0.0
783311.0,0.0,1.0,1.0,1.0,622.0,12.0,3.0,0.0
783311.0,0.0,2.0,1.0,2.0,546.0,12.0,3.0,1.0
783311.0,1.0,3.0,1.0,0.0,383.0,12.0,3.0,0.0
783311.0,0.0,1.0,1.0,1.0,1901.0,13.0,5.0,0.0
783311.0,1.0,2.0,1.0,0.0,525.0,13.0,5.0,0.0
783311.0,0.0,1.0,1.0,1.0,1203.0,14.0,5.0,0.0
783311.0,0.0,2.0,1.0,2.0,420.0,14.0,5.0,2.0
783311.0,0.0,3.0,0.0,3.0,368.0,14.0,5.0,0.0
783311.0,0.0,1.0,1.0,1.0,477.0,15.0,3.0,0.0
783311.0,0.0,2.0,1.0,2.0,487.0,15.0,3.0,2.0
783311.0,0.0,3.0,0.0,3.0,306.0,15.0,3.0,0.0
783311.0,0.0,1.0,1.0,1.0,454.0,16.0,3.0,0.0
783311.0,0.0,2.0,1.0,2.0,432.0,16.0,3.0,2.0
783311.0,0.0,3.0,0.0,3.0,261.0,16.0,3.0,0.0
783311.0,0.0,1.0,1.0,1.0,1261.0,17.0,3.0,0.0
783311.0,0.0,2.0,1.0,2.0,917.0,17.0,3.0,0.0
783311.0,0.0,3.0,1.0,3.0,480.0,17.0,3.0,0.0
783321.0,0.0,1.0,1.0,1.0,1130.0,1.0,0.0,0.0
783321.0,0.0,2.0,1.0,2.0,692.0,1.0,0.0,0.0
783321.0,0.0,3.0,1.0,3.0,259.0,1.0,0.0,0.0
783321.0,0.0,4.0,1.0,4.0,535.0,1.0,0.0,0.0
783321.0,0.0,5.0,1.0,5.0,753.0,1.0,0.0,1.0
783321.0,1.0,6.0,1.0,0.0,755.0,1.0,0.0,0.0
783321.0,0.0,1.0,1.0,1.0,819.0,2.0,5.0,0.0
783321.0,0.0,2.0,1.0,2.0,198.0,2.0,5.0,0.0
783321.0,0.0,3.0,1.0,3.0,367.0,2.0,5.0,0.0
783321.0,0.0,4.0,1.0,4.0,514.0,2.0,5.0,2.0
783321.0,0.0,5.0,0.0,5.0,360.0,2.0,5.0,0.0
783321.0,0.0,1.0,1.0,1.0,2354.0,3.0,3.0,0.0
783321.0,0.0,2.0,1.0,2.0,484.0,3.0,3.0,0.0
783321.0,0.0,3.0,1.0,3.0,453.0,3.0,3.0,0.0
783321.0,0.0,4.0,1.0,4.0,370.0,3.0,3.0,1.0
783321.0,1.0,5.0,1.0,0.0,950.0,3.0,3.0,0.0
783321.0,0.0,1.0,1.0,1.0,829.0,4.0,5.0,0.0
783321.0,0.0,2.0,1.0,2.0,1075.0,4.0,5.0,0.0
783321.0,0.0,3.0,1.0,3.0,1152.0,4.0,5.0,0.0
783321.0,0.0,4.0,1.0,4.0,1086.0,4.0,5.0,1.0
783321.0,1.0,5.0,1.0,0.0,662.0,4.0,5.0,0.0
783321.0,0.0,1.0,1.0,1.0,847.0,5.0,5.0,0.0
783321.0,0.0,2.0,1.0,2.0,865.0,5.0,5.0,0.0
783321.0,0.0,3.0,1.0,3.0,468.0,5.0,5.0,2.0
783321.0,0.0,4.0,0.0,4.0,422.0,5.0,5.0,0.0
783321.0,0.0,1.0,1.0,1.0,2343.0,6.0,3.0,0.0
783321.0,0.0,2.0,1.0,2.0,718.0,6.0,3.0,0.0
783321.0,0.0,3.0,1.0,3.0,460.0,6.0,3.0,2.0
783321.0,0.0,4.0,0.0,4.0,582.0,6.0,3.0,0.0
783321.0,0.0,1.0,1.0,1.0,1186.0,7.0,3.0,0.0
783321.0,0.0,2.0,1.0,2.0,395.0,7.0,3.0,0.0
783321.0,0.0,3.0,1.0,3.0,485.0,7.0,3.0,2.0
783321.0,0.0,4.0,0.0,4.0,587.0,7.0,3.0,0.0
783321.0,0.0,1.0,1.0,1.0,591.0,8.0,3.0,0.0
783321.0,0.0,2.0,1.0,2.0,452.0,8.0,3.0,0.0
783321.0,0.0,3.0,1.0,3.0,450.0,8.0,3.0,1.0
783321.0,1.0,4.0,1.0,0.0,806.0,8.0,3.0,0.0
783321.0,0.0,1.0,1.0,1.0,692.0,9.0,5.0,0.0
783321.0,0.0,2.0,1.0,2.0,517.0,9.0,5.0,0.0
783321.0,0.0,3.0,1.0,3.0,1327.0,9.0,5.0,2.0
783321.0,0.0,4.0,0.0,4.0,845.0,9.0,5.0,0.0
783321.0,0.0,1.0,1.0,1.0,2343.0,10.0,3.0,0.0
783321.0,0.0,2.0,1.0,2.0,421.0,10.0,3.0,0.0
783321.0,0.0,3.0,1.0,3.0,829.0,10.0,3.0,2.0
783321.0,0.0,4.0,0.0,4.0,2493.0,10.0,3.0,0.0
783321.0,0.0,1.0,1.0,1.0,682.0,11.0,3.0,0.0
783321.0,0.0,2.0,1.0,2.0,846.0,11.0,3.0,0.0
783321.0,0.0,3.0,1.0,3.0,633.0,11.0,3.0,2.0
783321.0,0.0,4.0,0.0,4.0,539.0,11.0,3.0,0.0
783321.0,0.0,1.0,1.0,1.0,714.0,12.0,3.0,0.0
783321.0,0.0,2.0,1.0,2.0,640.0,12.0,3.0,2.0
783321.0,0.0,3.0,0.0,3.0,1140.0,12.0,3.0,0.0
783321.0,0.0,1.0,1.0,1.0,1161.0,13.0,3.0,0.0
783321.0,0.0,2.0,0.0,2.0,929.0,13.0,3.0,0.0
783321.0,0.0,1.0,1.0,1.0,1590.0,14.0,3.0,0.0
783321.0,0.0,2.0,0.0,2.0,446.0,14.0,3.0,0.0
783321.0,0.0,1.0,1.0,1.0,1172.0,15.0,3.0,0.0
783321.0,0.0,2.0,0.0,2.0,659.0,15.0,3.0,0.0
783321.0,0.0,1.0,1.0,1.0,708.0,16.0,3.0,0.0
783321.0,0.0,2.0,1.0,2.0,805.0,16.0,3.0,0.0
787011.0,0.0,1.0,1.0,1.0,633.0,1.0,0.0,0.0
787011.0,0.0,2.0,1.0,2.0,627.0,1.0,0.0,0.0
787011.0,0.0,3.0,1.0,3.0,519.0,1.0,0.0,0.0
787011.0,0.0,4.0,1.0,4.0,350.0,1.0,0.0,0.0
787011.0,0.0,5.0,1.0,5.0,390.0,1.0,0.0,0.0
787011.0,0.0,6.0,1.0,6.0,605.0,1.0,0.0,1.0
787011.0,1.0,7.0,1.0,0.0,644.0,1.0,0.0,0.0
787011.0,0.0,1.0,1.0,1.0,459.0,2.0,5.0,0.0
787011.0,0.0,2.0,1.0,2.0,542.0,2.0,5.0,0.0
787011.0,0.0,3.0,1.0,3.0,322.0,2.0,5.0,0.0
787011.0,0.0,4.0,1.0,4.0,379.0,2.0,5.0,0.0
787011.0,0.0,5.0,1.0,5.0,378.0,2.0,5.0,1.0
787011.0,1.0,6.0,1.0,0.0,388.0,2.0,5.0,0.0
787011.0,0.0,1.0,1.0,1.0,106.0,3.0,5.0,0.0
787011.0,0.0,2.0,1.0,2.0,130.0,3.0,5.0,0.0
787011.0,0.0,3.0,1.0,3.0,345.0,3.0,5.0,0.0
787011.0,0.0,4.0,1.0,4.0,890.0,3.0,5.0,0.0
787011.0,0.0,5.0,1.0,5.0,812.0,3.0,5.0,2.0
787011.0,0.0,6.0,0.0,6.0,394.0,3.0,5.0,0.0
787011.0,0.0,1.0,1.0,1.0,1182.0,4.0,3.0,0.0
787011.0,0.0,2.0,1.0,2.0,276.0,4.0,3.0,0.0
787011.0,0.0,3.0,1.0,3.0,357.0,4.0,3.0,0.0
787011.0,0.0,4.0,1.0,4.0,400.0,4.0,3.0,0.0
787011.0,0.0,5.0,1.0,5.0,372.0,4.0,3.0,2.0
787011.0,0.0,6.0,0.0,6.0,850.0,4.0,3.0,0.0
787011.0,0.0,1.0,1.0,1.0,405.0,5.0,3.0,0.0
787011.0,0.0,2.0,1.0,2.0,160.0,5.0,3.0,0.0
787011.0,0.0,3.0,1.0,3.0,523.0,5.0,3.0,0.0
787011.0,0.0,4.0,1.0,4.0,1555.0,5.0,3.0,0.0
787011.0,0.0,5.0,1.0,5.0,2131.0,5.0,3.0,1.0
787011.0,1.0,6.0,1.0,0.0,1360.0,5.0,3.0,0.0
787011.0,0.0,1.0,1.0,1.0,452.0,6.0,5.0,0.0
787011.0,0.0,2.0,1.0,2.0,408.0,6.0,5.0,0.0
787011.0,0.0,3.0,1.0,3.0,561.0,6.0,5.0,0.0
787011.0,0.0,4.0,1.0,4.0,2846.0,6.0,5.0,0.0
787011.0,0.0,5.0,1.0,5.0,538.0,6.0,5.0,1.0
787011.0,1.0,6.0,1.0,0.0,465.0,6.0,5.0,0.0
787011.0,0.0,1.0,1.0,1.0,406.0,7.0,5.0,0.0
787011.0,0.0,2.0,1.0,2.0,184.0,7.0,5.0,0.0
787011.0,0.0,3.0,1.0,3.0,317.0,7.0,5.0,0.0
787011.0,0.0,4.0,1.0,4.0,1410.0,7.0,5.0,2.0
787011.0,0.0,5.0,0.0,5.0,412.0,7.0,5.0,0.0
787011.0,0.0,1.0,1.0,1.0,498.0,8.0,3.0,0.0
787011.0,0.0,2.0,1.0,2.0,473.0,8.0,3.0,0.0
787011.0,0.0,3.0,1.0,3.0,857.0,8.0,3.0,0.0
787011.0,0.0,4.0,1.0,4.0,523.0,8.0,3.0,0.0
787011.0,0.0,5.0,1.0,5.0,489.0,8.0,3.0,2.0
787011.0,0.0,6.0,0.0,6.0,539.0,8.0,3.0,0.0
787011.0,0.0,1.0,1.0,1.0,609.0,9.0,3.0,0.0
787011.0,0.0,2.0,1.0,2.0,314.0,9.0,3.0,0.0
787011.0,0.0,3.0,1.0,3.0,374.0,9.0,3.0,2.0
787011.0,0.0,4.0,0.0,4.0,604.0,9.0,3.0,0.0
787011.0,0.0,1.0,1.0,1.0,1093.0,10.0,3.0,0.0
787011.0,0.0,2.0,1.0,2.0,324.0,10.0,3.0,0.0
787011.0,0.0,3.0,1.0,3.0,520.0,10.0,3.0,0.0
787011.0,0.0,4.0,1.0,4.0,630.0,10.0,3.0,0.0
787011.0,0.0,5.0,1.0,5.0,488.0,10.0,3.0,2.0
787011.0,0.0,6.0,0.0,6.0,451.0,10.0,3.0,0.0
787011.0,0.0,1.0,1.0,1.0,764.0,11.0,3.0,0.0
787011.0,0.0,2.0,1.0,2.0,431.0,11.0,3.0,0.0
787011.0,0.0,3.0,1.0,3.0,460.0,11.0,3.0,0.0
787011.0,0.0,4.0,1.0,4.0,687.0,11.0,3.0,0.0
787011.0,0.0,5.0,1.0,5.0,640.0,11.0,3.0,2.0
787011.0,0.0,6.0,0.0,6.0,411.0,11.0,3.0,0.0
787011.0,0.0,1.0,1.0,1.0,1154.0,12.0,3.0,0.0
787011.0,0.0,2.0,1.0,2.0,486.0,12.0,3.0,0.0
787011.0,0.0,3.0,1.0,3.0,443.0,12.0,3.0,0.0
787011.0,0.0,4.0,1.0,4.0,365.0,12.0,3.0,2.0
787011.0,0.0,5.0,0.0,5.0,191.0,12.0,3.0,0.0
787011.0,0.0,1.0,1.0,1.0,485.0,13.0,3.0,0.0
787011.0,0.0,2.0,1.0,2.0,449.0,13.0,3.0,0.0
787011.0,0.0,3.0,1.0,3.0,167.0,13.0,3.0,2.0
787011.0,0.0,4.0,0.0,4.0,682.0,13.0,3.0,0.0
787011.0,0.0,1.0,1.0,1.0,2295.0,14.0,3.0,0.0
787011.0,0.0,2.0,1.0,2.0,642.0,14.0,3.0,0.0
787011.0,0.0,3.0,1.0,3.0,1256.0,14.0,3.0,0.0
787021.0,0.0,1.0,1.0,1.0,1550.0,1.0,0.0,0.0
787021.0,0.0,2.0,1.0,2.0,342.0,1.0,0.0,0.0
787021.0,0.0,3.0,1.0,3.0,441.0,1.0,0.0,0.0
787021.0,0.0,4.0,1.0,4.0,410.0,1.0,0.0,0.0
787021.0,0.0,5.0,1.0,5.0,480.0,1.0,0.0,0.0
787021.0,0.0,6.0,1.0,6.0,438.0,1.0,0.0,2.0
787021.0,0.0,7.0,0.0,7.0,442.0,1.0,0.0,0.0
787021.0,0.0,1.0,1.0,1.0,490.0,2.0,3.0,0.0
787021.0,0.0,2.0,1.0,2.0,164.0,2.0,3.0,0.0
787021.0,0.0,3.0,1.0,3.0,689.0,2.0,3.0,0.0
787021.0,0.0,4.0,1.0,4.0,256.0,2.0,3.0,0.0
787021.0,0.0,5.0,1.0,5.0,363.0,2.0,3.0,0.0
787021.0,0.0,6.0,1.0,6.0,470.0,2.0,3.0,2.0
787021.0,0.0,7.0,0.0,7.0,503.0,2.0,3.0,0.0
787021.0,0.0,1.0,1.0,1.0,363.0,3.0,3.0,0.0
787021.0,0.0,2.0,1.0,2.0,127.0,3.0,3.0,0.0
787021.0,0.0,3.0,1.0,3.0,109.0,3.0,3.0,0.0
787021.0,0.0,4.0,1.0,4.0,604.0,3.0,3.0,0.0
787021.0,0.0,5.0,1.0,5.0,392.0,3.0,3.0,0.0
787021.0,0.0,6.0,1.0,6.0,1030.0,3.0,3.0,2.0
787021.0,0.0,7.0,0.0,7.0,407.0,3.0,3.0,0.0
787021.0,0.0,1.0,1.0,1.0,451.0,4.0,3.0,0.0
787021.0,0.0,2.0,1.0,2.0,397.0,4.0,3.0,0.0
787021.0,0.0,3.0,1.0,3.0,361.0,4.0,3.0,0.0
787021.0,0.0,4.0,1.0,4.0,495.0,4.0,3.0,0.0
787021.0,0.0,5.0,1.0,5.0,2522.0,4.0,3.0,0.0
787021.0,0.0,6.0,1.0,6.0,936.0,4.0,3.0,1.0
787021.0,1.0,7.0,1.0,0.0,454.0,4.0,3.0,0.0
787021.0,0.0,1.0,1.0,1.0,663.0,5.0,5.0,0.0
787021.0,0.0,2.0,1.0,2.0,167.0,5.0,5.0,0.0
787021.0,0.0,3.0,1.0,3.0,277.0,5.0,5.0,1.0
787021.0,1.0,4.0,1.0,0.0,455.0,5.0,5.0,0.0
787021.0,0.0,1.0,1.0,1.0,397.0,6.0,5.0,0.0
787021.0,0.0,2.0,1.0,2.0,186.0,6.0,5.0,0.0
787021.0,0.0,3.0,1.0,3.0,166.0,6.0,5.0,0.0
787021.0,0.0,4.0,1.0,4.0,239.0,6.0,5.0,0.0
787021.0,0.0,5.0,1.0,5.0,449.0,6.0,5.0,2.0
787021.0,0.0,6.0,0.0,6.0,316.0,6.0,5.0,0.0
787021.0,0.0,1.0,1.0,1.0,125.0,7.0,3.0,0.0
787021.0,0.0,2.0,1.0,2.0,242.0,7.0,3.0,0.0
787021.0,0.0,3.0,1.0,3.0,867.0,7.0,3.0,0.0
787021.0,0.0,4.0,1.0,4.0,692.0,7.0,3.0,0.0
787021.0,0.0,5.0,1.0,5.0,424.0,7.0,3.0,0.0
787021.0,0.0,6.0,1.0,6.0,383.0,7.0,3.0,1.0
787021.0,1.0,7.0,1.0,0.0,806.0,7.0,3.0,0.0
787021.0,0.0,1.0,1.0,1.0,485.0,8.0,5.0,0.0
787021.0,0.0,2.0,1.0,2.0,239.0,8.0,5.0,0.0
787021.0,0.0,3.0,1.0,3.0,114.0,8.0,5.0,0.0
787021.0,0.0,4.0,1.0,4.0,351.0,8.0,5.0,0.0
787021.0,0.0,5.0,1.0,5.0,735.0,8.0,5.0,1.0
787021.0,1.0,6.0,1.0,0.0,362.0,8.0,5.0,0.0
787021.0,0.0,1.0,1.0,1.0,759.0,9.0,5.0,0.0
787021.0,0.0,2.0,1.0,2.0,236.0,9.0,5.0,0.0
787021.0,0.0,3.0,1.0,3.0,290.0,9.0,5.0,0.0
787021.0,0.0,4.0,1.0,4.0,453.0,9.0,5.0,0.0
787021.0,0.0,5.0,1.0,5.0,1905.0,9.0,5.0,2.0
787021.0,0.0,6.0,0.0,6.0,426.0,9.0,5.0,0.0
787021.0,0.0,1.0,1.0,1.0,734.0,10.0,3.0,0.0
787021.0,0.0,2.0,1.0,2.0,376.0,10.0,3.0,0.0
787021.0,0.0,3.0,1.0,3.0,404.0,10.0,3.0,0.0
787021.0,0.0,4.0,1.0,4.0,449.0,10.0,3.0,1.0
787021.0,1.0,5.0,1.0,0.0,507.0,10.0,3.0,0.0
787021.0,0.0,1.0,1.0,1.0,263.0,11.0,5.0,0.0
787021.0,0.0,2.0,1.0,2.0,455.0,11.0,5.0,0.0
787021.0,0.0,3.0,1.0,3.0,2223.0,11.0,5.0,0.0
787021.0,0.0,4.0,1.0,4.0,867.0,11.0,5.0,2.0
787021.0,0.0,5.0,0.0,5.0,439.0,11.0,5.0,0.0
787021.0,0.0,1.0,1.0,1.0,897.0,12.0,3.0,0.0
787021.0,0.0,2.0,1.0,2.0,569.0,12.0,3.0,0.0
787411.0,0.0,1.0,1.0,1.0,665.0,1.0,0.0,0.0
787411.0,0.0,2.0,1.0,2.0,631.0,1.0,0.0,0.0
787411.0,0.0,3.0,1.0,3.0,723.0,1.0,0.0,0.0
787411.0,0.0,4.0,1.0,4.0,512.0,1.0,0.0,0.0
787411.0,0.0,5.0,1.0,5.0,577.0,1.0,0.0,0.0
787411.0,0.0,6.0,1.0,6.0,558.0,1.0,0.0,2.0
787411.0,0.0,7.0,0.0,7.0,552.0,1.0,0.0,0.0
787411.0,0.0,1.0,1.0,1.0,564.0,2.0,3.0,0.0
787411.0,0.0,2.0,1.0,2.0,458.0,2.0,3.0,0.0
787411.0,0.0,3.0,1.0,3.0,530.0,2.0,3.0,0.0
787411.0,0.0,4.0,1.0,4.0,655.0,2.0,3.0,0.0
787411.0,0.0,5.0,1.0,5.0,734.0,2.0,3.0,0.0
787411.0,0.0,6.0,1.0,6.0,540.0,2.0,3.0,2.0
787411.0,0.0,7.0,0.0,7.0,677.0,2.0,3.0,0.0
787411.0,0.0,1.0,1.0,1.0,590.0,3.0,3.0,0.0
787411.0,0.0,2.0,1.0,2.0,632.0,3.0,3.0,0.0
787411.0,0.0,3.0,1.0,3.0,665.0,3.0,3.0,0.0
787411.0,0.0,4.0,1.0,4.0,985.0,3.0,3.0,0.0
787411.0,0.0,5.0,1.0,5.0,627.0,3.0,3.0,0.0
787411.0,0.0,6.0,1.0,6.0,383.0,3.0,3.0,2.0
787411.0,0.0,7.0,0.0,7.0,708.0,3.0,3.0,0.0
787411.0,0.0,1.0,1.0,1.0,773.0,4.0,3.0,0.0
787411.0,0.0,2.0,1.0,2.0,527.0,4.0,3.0,0.0
787411.0,0.0,3.0,1.0,3.0,599.0,4.0,3.0,0.0
787411.0,0.0,4.0,1.0,4.0,433.0,4.0,3.0,0.0
787411.0,0.0,5.0,1.0,5.0,761.0,4.0,3.0,2.0
787411.0,0.0,6.0,0.0,6.0,712.0,4.0,3.0,0.0
787411.0,0.0,1.0,1.0,1.0,682.0,5.0,3.0,0.0
787411.0,0.0,2.0,1.0,2.0,475.0,5.0,3.0,0.0
787411.0,0.0,3.0,1.0,3.0,528.0,5.0,3.0,0.0
787411.0,0.0,4.0,1.0,4.0,497.0,5.0,3.0,0.0
787411.0,0.0,5.0,1.0,5.0,647.0,5.0,3.0,2.0
787411.0,0.0,6.0,0.0,6.0,673.0,5.0,3.0,0.0
787411.0,0.0,1.0,1.0,1.0,837.0,6.0,3.0,0.0
787411.0,0.0,2.0,1.0,2.0,633.0,6.0,3.0,0.0
787411.0,0.0,3.0,1.0,3.0,874.0,6.0,3.0,0.0
787411.0,0.0,4.0,1.0,4.0,840.0,6.0,3.0,0.0
787411.0,0.0,5.0,1.0,5.0,625.0,6.0,3.0,1.0
787411.0,1.0,6.0,1.0,0.0,716.0,6.0,3.0,0.0
787411.0,0.0,1.0,1.0,1.0,1105.0,7.0,5.0,0.0
787411.0,0.0,2.0,1.0,2.0,1017.0,7.0,5.0,0.0
787411.0,0.0,3.0,1.0,3.0,956.0,7.0,5.0,0.0
787411.0,0.0,4.0,1.0,4.0,629.0,7.0,5.0,2.0
787411.0,0.0,5.0,0.0,5.0,887.0,7.0,5.0,0.0
787411.0,0.0,1.0,1.0,1.0,1046.0,8.0,3.0,0.0
787411.0,0.0,2.0,1.0,2.0,998.0,8.0,3.0,0.0
787411.0,0.0,3.0,1.0,3.0,999.0,8.0,3.0,0.0
787411.0,0.0,4.0,1.0,4.0,690.0,8.0,3.0,2.0
787411.0,0.0,5.0,0.0,5.0,498.0,8.0,3.0,0.0
787411.0,0.0,1.0,1.0,1.0,852.0,9.0,3.0,0.0
787411.0,0.0,2.0,1.0,2.0,621.0,9.0,3.0,0.0
787411.0,0.0,3.0,1.0,3.0,681.0,9.0,3.0,0.0
787411.0,0.0,4.0,1.0,4.0,775.0,9.0,3.0,2.0
787411.0,0.0,5.0,0.0,5.0,919.0,9.0,3.0,0.0
787411.0,0.0,1.0,1.0,1.0,718.0,10.0,3.0,0.0
787411.0,0.0,2.0,1.0,2.0,540.0,10.0,3.0,0.0
787411.0,0.0,3.0,1.0,3.0,629.0,10.0,3.0,0.0
787411.0,0.0,4.0,1.0,4.0,1269.0,10.0,3.0,2.0
787411.0,0.0,5.0,0.0,5.0,752.0,10.0,3.0,0.0
787411.0,0.0,1.0,1.0,1.0,641.0,11.0,3.0,0.0
787411.0,0.0,2.0,1.0,2.0,841.0,11.0,3.0,0.0
787411.0,0.0,3.0,1.0,3.0,824.0,11.0,3.0,2.0
787411.0,0.0,4.0,0.0,4.0,654.0,11.0,3.0,0.0
787411.0,0.0,1.0,1.0,1.0,1044.0,12.0,3.0,0.0
787411.0,0.0,2.0,1.0,2.0,949.0,12.0,3.0,0.0
787411.0,0.0,3.0,1.0,3.0,955.0,12.0,3.0,2.0
787411.0,0.0,4.0,0.0,4.0,1151.0,12.0,3.0,0.0
787411.0,0.0,1.0,1.0,1.0,769.0,13.0,3.0,0.0
787411.0,0.0,2.0,1.0,2.0,568.0,13.0,3.0,0.0
787411.0,0.0,3.0,1.0,3.0,619.0,13.0,3.0,1.0
787411.0,1.0,4.0,1.0,0.0,739.0,13.0,3.0,0.0
787411.0,0.0,1.0,1.0,1.0,771.0,14.0,5.0,0.0
787411.0,0.0,2.0,1.0,2.0,827.0,14.0,5.0,0.0
787411.0,0.0,3.0,1.0,3.0,927.0,14.0,5.0,0.0
787421.0,0.0,1.0,1.0,1.0,657.0,1.0,0.0,0.0
787421.0,0.0,2.0,1.0,2.0,709.0,1.0,0.0,0.0
787421.0,0.0,3.0,1.0,3.0,812.0,1.0,0.0,0.0
787421.0,0.0,4.0,1.0,4.0,1360.0,1.0,0.0,0.0
787421.0,0.0,5.0,1.0,5.0,751.0,1.0,0.0,2.0
787421.0,0.0,6.0,0.0,6.0,1515.0,1.0,0.0,0.0
787421.0,0.0,1.0,1.0,1.0,770.0,2.0,3.0,0.0
787421.0,0.0,2.0,1.0,2.0,570.0,2.0,3.0,0.0
787421.0,0.0,3.0,1.0,3.0,581.0,2.0,3.0,0.0
787421.0,0.0,4.0,1.0,4.0,739.0,2.0,3.0,2.0
787421.0,0.0,5.0,0.0,5.0,393.0,2.0,3.0,0.0
787421.0,0.0,1.0,1.0,1.0,773.0,3.0,3.0,0.0
787421.0,0.0,2.0,1.0,2.0,588.0,3.0,3.0,0.0
787421.0,0.0,3.0,1.0,3.0,478.0,3.0,3.0,0.0
787421.0,0.0,4.0,1.0,4.0,623.0,3.0,3.0,0.0
787421.0,0.0,5.0,1.0,5.0,546.0,3.0,3.0,2.0
787421.0,0.0,6.0,0.0,6.0,1340.0,3.0,3.0,0.0
787421.0,0.0,1.0,1.0,1.0,742.0,4.0,3.0,0.0
787421.0,0.0,2.0,1.0,2.0,575.0,4.0,3.0,0.0
787421.0,0.0,3.0,1.0,3.0,630.0,4.0,3.0,0.0
787421.0,0.0,4.0,1.0,4.0,531.0,4.0,3.0,2.0
787421.0,0.0,5.0,0.0,5.0,580.0,4.0,3.0,0.0
787421.0,0.0,1.0,1.0,1.0,660.0,5.0,3.0,0.0
787421.0,0.0,2.0,1.0,2.0,504.0,5.0,3.0,0.0
787421.0,0.0,3.0,1.0,3.0,604.0,5.0,3.0,0.0
787421.0,0.0,4.0,1.0,4.0,554.0,5.0,3.0,2.0
787421.0,0.0,5.0,0.0,5.0,418.0,5.0,3.0,0.0
787421.0,0.0,1.0,1.0,1.0,659.0,6.0,3.0,0.0
787421.0,0.0,2.0,1.0,2.0,563.0,6.0,3.0,0.0
787421.0,0.0,3.0,1.0,3.0,598.0,6.0,3.0,2.0
787421.0,0.0,4.0,0.0,4.0,571.0,6.0,3.0,0.0
787421.0,0.0,1.0,1.0,1.0,556.0,7.0,3.0,0.0
787421.0,0.0,2.0,1.0,2.0,402.0,7.0,3.0,0.0
787421.0,0.0,3.0,1.0,3.0,460.0,7.0,3.0,1.0
787421.0,1.0,4.0,1.0,0.0,1189.0,7.0,3.0,0.0
787421.0,0.0,1.0,1.0,1.0,659.0,8.0,5.0,0.0
787421.0,0.0,2.0,1.0,2.0,580.0,8.0,5.0,0.0
787421.0,0.0,3.0,1.0,3.0,540.0,8.0,5.0,2.0
787421.0,0.0,4.0,0.0,4.0,518.0,8.0,5.0,0.0
787421.0,0.0,1.0,1.0,1.0,684.0,9.0,3.0,0.0
787421.0,0.0,2.0,1.0,2.0,477.0,9.0,3.0,0.0
787421.0,0.0,3.0,1.0,3.0,417.0,9.0,3.0,2.0
787421.0,0.0,4.0,0.0,4.0,412.0,9.0,3.0,0.0
787421.0,0.0,1.0,1.0,1.0,656.0,10.0,3.0,0.0
787421.0,0.0,2.0,1.0,2.0,385.0,10.0,3.0,0.0
787421.0,0.0,3.0,1.0,3.0,397.0,10.0,3.0,2.0
787421.0,0.0,4.0,0.0,4.0,537.0,10.0,3.0,0.0
787421.0,0.0,1.0,1.0,1.0,588.0,11.0,3.0,0.0
787421.0,0.0,2.0,1.0,2.0,552.0,11.0,3.0,0.0
787421.0,0.0,3.0,1.0,3.0,527.0,11.0,3.0,2.0
787421.0,0.0,4.0,0.0,4.0,420.0,11.0,3.0,0.0
787421.0,0.0,1.0,1.0,1.0,539.0,12.0,3.0,0.0
787421.0,0.0,2.0,1.0,2.0,490.0,12.0,3.0,1.0
787421.0,1.0,3.0,1.0,0.0,547.0,12.0,3.0,0.0
787421.0,0.0,1.0,1.0,1.0,581.0,13.0,5.0,0.0
787421.0,0.0,2.0,1.0,2.0,529.0,13.0,5.0,2.0
787421.0,0.0,3.0,0.0,3.0,504.0,13.0,5.0,0.0
787421.0,0.0,1.0,1.0,1.0,770.0,14.0,3.0,0.0
787421.0,0.0,2.0,1.0,2.0,592.0,14.0,3.0,2.0
787421.0,0.0,3.0,0.0,3.0,530.0,14.0,3.0,0.0
787421.0,0.0,1.0,1.0,1.0,562.0,15.0,3.0,0.0
787421.0,0.0,2.0,1.0,2.0,507.0,15.0,3.0,2.0
787421.0,0.0,3.0,0.0,3.0,551.0,15.0,3.0,0.0
787421.0,0.0,1.0,1.0,1.0,656.0,16.0,3.0,0.0
787421.0,0.0,2.0,1.0,2.0,433.0,16.0,3.0,2.0
787421.0,0.0,3.0,0.0,3.0,528.0,16.0,3.0,0.0
787421.0,0.0,1.0,1.0,1.0,665.0,17.0,3.0,0.0
787421.0,0.0,2.0,1.0,2.0,512.0,17.0,3.0,0.0
787421.0,0.0,3.0,1.0,3.0,569.0,17.0,3.0,0.0
787611.0,0.0,1.0,1.0,1.0,845.0,1.0,0.0,0.0
787611.0,0.0,2.0,1.0,2.0,952.0,1.0,0.0,0.0
787611.0,0.0,3.0,1.0,3.0,783.0,1.0,0.0,0.0
787611.0,0.0,4.0,1.0,4.0,2492.0,1.0,0.0,0.0
787611.0,0.0,5.0,1.0,5.0,1378.0,1.0,0.0,0.0
787611.0,0.0,6.0,1.0,6.0,842.0,1.0,0.0,2.0
787611.0,0.0,7.0,0.0,7.0,747.0,1.0,0.0,0.0
787611.0,0.0,1.0,1.0,1.0,1124.0,2.0,3.0,0.0
787611.0,0.0,2.0,1.0,2.0,713.0,2.0,3.0,0.0
787611.0,0.0,3.0,1.0,3.0,1685.0,2.0,3.0,0.0
787611.0,0.0,4.0,1.0,4.0,2423.0,2.0,3.0,0.0
787611.0,0.0,5.0,1.0,5.0,726.0,2.0,3.0,0.0
787611.0,0.0,6.0,1.0,6.0,682.0,2.0,3.0,2.0
787611.0,0.0,7.0,0.0,7.0,676.0,2.0,3.0,0.0
787611.0,0.0,1.0,1.0,1.0,552.0,3.0,3.0,0.0
787611.0,0.0,2.0,1.0,2.0,553.0,3.0,3.0,0.0
787611.0,0.0,3.0,1.0,3.0,472.0,3.0,3.0,0.0
787611.0,0.0,4.0,1.0,4.0,1006.0,3.0,3.0,0.0
787611.0,0.0,5.0,1.0,5.0,1182.0,3.0,3.0,2.0
787611.0,0.0,6.0,0.0,6.0,546.0,3.0,3.0,0.0
787611.0,0.0,1.0,1.0,1.0,724.0,4.0,3.0,0.0
787611.0,0.0,2.0,1.0,2.0,777.0,4.0,3.0,0.0
787611.0,0.0,3.0,1.0,3.0,986.0,4.0,3.0,0.0
787611.0,0.0,4.0,1.0,4.0,1082.0,4.0,3.0,0.0
787611.0,0.0,5.0,1.0,5.0,651.0,4.0,3.0,1.0
787611.0,1.0,6.0,1.0,0.0,985.0,4.0,3.0,0.0
787611.0,0.0,1.0,1.0,1.0,2045.0,5.0,5.0,0.0
787611.0,0.0,2.0,1.0,2.0,905.0,5.0,5.0,0.0
787611.0,0.0,3.0,1.0,3.0,1022.0,5.0,5.0,0.0
787611.0,0.0,4.0,1.0,4.0,1337.0,5.0,5.0,2.0
787611.0,0.0,5.0,0.0,5.0,2482.0,5.0,5.0,0.0
787611.0,0.0,1.0,1.0,1.0,1372.0,6.0,3.0,0.0
787611.0,0.0,2.0,1.0,2.0,833.0,6.0,3.0,0.0
787611.0,0.0,3.0,1.0,3.0,802.0,6.0,3.0,0.0
787611.0,0.0,4.0,1.0,4.0,1198.0,6.0,3.0,2.0
787611.0,0.0,5.0,0.0,5.0,943.0,6.0,3.0,0.0
787611.0,0.0,1.0,1.0,1.0,1011.0,7.0,3.0,0.0
787611.0,0.0,2.0,1.0,2.0,999.0,7.0,3.0,0.0
787611.0,0.0,3.0,1.0,3.0,491.0,7.0,3.0,0.0
787611.0,0.0,4.0,1.0,4.0,633.0,7.0,3.0,2.0
787611.0,0.0,5.0,0.0,5.0,1275.0,7.0,3.0,0.0
787611.0,0.0,1.0,1.0,1.0,795.0,8.0,3.0,0.0
787611.0,0.0,2.0,1.0,2.0,576.0,8.0,3.0,0.0
787611.0,0.0,3.0,1.0,3.0,746.0,8.0,3.0,0.0
787611.0,0.0,4.0,1.0,4.0,681.0,8.0,3.0,2.0
787611.0,0.0,5.0,0.0,5.0,1557.0,8.0,3.0,0.0
787611.0,0.0,1.0,1.0,1.0,882.0,9.0,3.0,0.0
787611.0,0.0,2.0,1.0,2.0,716.0,9.0,3.0,0.0
787611.0,0.0,3.0,1.0,3.0,883.0,9.0,3.0,0.0
787611.0,0.0,4.0,1.0,4.0,1607.0,9.0,3.0,2.0
787611.0,0.0,5.0,0.0,5.0,916.0,9.0,3.0,0.0
787611.0,0.0,1.0,1.0,1.0,830.0,10.0,3.0,0.0
787611.0,0.0,2.0,1.0,2.0,796.0,10.0,3.0,0.0
787611.0,0.0,3.0,1.0,3.0,464.0,10.0,3.0,0.0
787611.0,0.0,4.0,1.0,4.0,426.0,10.0,3.0,2.0
787611.0,0.0,5.0,0.0,5.0,1029.0,10.0,3.0,0.0
787611.0,0.0,1.0,1.0,1.0,717.0,11.0,3.0,0.0
787611.0,0.0,2.0,1.0,2.0,560.0,11.0,3.0,0.0
787611.0,0.0,3.0,1.0,3.0,989.0,11.0,3.0,2.0
787611.0,0.0,4.0,0.0,4.0,933.0,11.0,3.0,0.0
787611.0,0.0,1.0,1.0,1.0,686.0,12.0,3.0,0.0
787611.0,0.0,2.0,1.0,2.0,1053.0,12.0,3.0,0.0
787611.0,0.0,3.0,1.0,3.0,1394.0,12.0,3.0,1.0
787611.0,1.0,4.0,1.0,0.0,2573.0,12.0,3.0,0.0
787611.0,0.0,1.0,1.0,1.0,995.0,13.0,5.0,0.0
787611.0,0.0,2.0,0.0,2.0,943.0,13.0,5.0,0.0
787611.0,0.0,1.0,1.0,1.0,2284.0,14.0,3.0,0.0
787611.0,0.0,2.0,1.0,2.0,947.0,14.0,3.0,0.0
787621.0,0.0,1.0,1.0,1.0,1137.0,1.0,0.0,0.0
787621.0,0.0,2.0,1.0,2.0,664.0,1.0,0.0,0.0
787621.0,0.0,3.0,1.0,3.0,869.0,1.0,0.0,0.0
787621.0,0.0,4.0,1.0,4.0,355.0,1.0,0.0,0.0
787621.0,0.0,5.0,1.0,5.0,783.0,1.0,0.0,1.0
787621.0,1.0,6.0,1.0,0.0,743.0,1.0,0.0,0.0
787621.0,0.0,1.0,1.0,1.0,856.0,2.0,5.0,0.0
787621.0,0.0,2.0,1.0,2.0,567.0,2.0,5.0,0.0
787621.0,0.0,3.0,1.0,3.0,687.0,2.0,5.0,0.0
787621.0,0.0,4.0,1.0,4.0,400.0,2.0,5.0,0.0
787621.0,0.0,5.0,1.0,5.0,1261.0,2.0,5.0,1.0
787621.0,1.0,6.0,1.0,0.0,1917.0,2.0,5.0,0.0
787621.0,0.0,1.0,1.0,1.0,695.0,3.0,5.0,0.0
787621.0,0.0,2.0,1.0,2.0,379.0,3.0,5.0,0.0
787621.0,0.0,3.0,1.0,3.0,621.0,3.0,5.0,0.0
787621.0,0.0,4.0,1.0,4.0,425.0,3.0,5.0,0.0
787621.0,0.0,5.0,1.0,5.0,2208.0,3.0,5.0,2.0
787621.0,0.0,6.0,0.0,6.0,338.0,3.0,5.0,0.0
787621.0,0.0,1.0,1.0,1.0,826.0,4.0,3.0,0.0
787621.0,0.0,2.0,1.0,2.0,414.0,4.0,3.0,0.0
787621.0,0.0,3.0,1.0,3.0,420.0,4.0,3.0,0.0
787621.0,0.0,4.0,1.0,4.0,870.0,4.0,3.0,2.0
787621.0,0.0,5.0,0.0,5.0,386.0,4.0,3.0,0.0
787621.0,0.0,1.0,1.0,1.0,995.0,5.0,3.0,0.0
787621.0,0.0,2.0,1.0,2.0,463.0,5.0,3.0,0.0
787621.0,0.0,3.0,1.0,3.0,448.0,5.0,3.0,0.0
787621.0,0.0,4.0,1.0,4.0,1044.0,5.0,3.0,1.0
787621.0,1.0,5.0,1.0,0.0,403.0,5.0,3.0,0.0
787621.0,0.0,1.0,1.0,1.0,964.0,6.0,5.0,0.0
787621.0,0.0,2.0,1.0,2.0,619.0,6.0,5.0,0.0
787621.0,0.0,3.0,1.0,3.0,774.0,6.0,5.0,0.0
787621.0,0.0,4.0,1.0,4.0,1290.0,6.0,5.0,2.0
787621.0,0.0,5.0,0.0,5.0,316.0,6.0,5.0,0.0
787621.0,0.0,1.0,1.0,1.0,505.0,7.0,3.0,0.0
787621.0,0.0,2.0,1.0,2.0,335.0,7.0,3.0,0.0
787621.0,0.0,3.0,1.0,3.0,649.0,7.0,3.0,0.0
787621.0,0.0,4.0,1.0,4.0,413.0,7.0,3.0,2.0
787621.0,0.0,5.0,0.0,5.0,1643.0,7.0,3.0,0.0
787621.0,0.0,1.0,1.0,1.0,1618.0,8.0,3.0,0.0
787621.0,0.0,2.0,1.0,2.0,460.0,8.0,3.0,0.0
787621.0,0.0,3.0,1.0,3.0,593.0,8.0,3.0,0.0
787621.0,0.0,4.0,1.0,4.0,605.0,8.0,3.0,2.0
787621.0,0.0,5.0,0.0,5.0,705.0,8.0,3.0,0.0
787621.0,0.0,1.0,1.0,1.0,537.0,9.0,3.0,0.0
787621.0,0.0,2.0,1.0,2.0,501.0,9.0,3.0,0.0
787621.0,0.0,3.0,1.0,3.0,729.0,9.0,3.0,1.0
787621.0,1.0,4.0,1.0,0.0,840.0,9.0,3.0,0.0
787621.0,0.0,1.0,1.0,1.0,1358.0,10.0,5.0,0.0
787621.0,0.0,2.0,1.0,2.0,749.0,10.0,5.0,0.0
787621.0,0.0,3.0,1.0,3.0,1463.0,10.0,5.0,2.0
787621.0,0.0,4.0,0.0,4.0,529.0,10.0,5.0,0.0
787621.0,0.0,1.0,1.0,1.0,585.0,11.0,3.0,0.0
787621.0,0.0,2.0,1.0,2.0,410.0,11.0,3.0,0.0
787621.0,0.0,3.0,1.0,3.0,2984.0,11.0,3.0,1.0
787621.0,1.0,4.0,1.0,0.0,823.0,11.0,3.0,0.0
787621.0,0.0,1.0,1.0,1.0,804.0,12.0,5.0,0.0
787621.0,0.0,2.0,1.0,2.0,600.0,12.0,5.0,0.0
787621.0,0.0,3.0,1.0,3.0,1188.0,12.0,5.0,2.0
787621.0,0.0,4.0,0.0,4.0,1690.0,12.0,5.0,0.0
787621.0,0.0,1.0,1.0,1.0,653.0,13.0,3.0,0.0
787621.0,0.0,2.0,1.0,2.0,492.0,13.0,3.0,2.0
787621.0,0.0,3.0,0.0,3.0,883.0,13.0,3.0,0.0
787621.0,0.0,1.0,1.0,1.0,1025.0,14.0,3.0,0.0
787621.0,0.0,2.0,1.0,2.0,786.0,14.0,3.0,2.0
787621.0,0.0,3.0,0.0,3.0,1091.0,14.0,3.0,0.0
787621.0,0.0,1.0,1.0,1.0,728.0,15.0,3.0,0.0
787621.0,0.0,2.0,0.0,2.0,701.0,15.0,3.0,0.0
787621.0,0.0,1.0,1.0,1.0,1032.0,16.0,3.0,0.0
787621.0,0.0,2.0,1.0,2.0,655.0,16.0,3.0,0.0
790211.0,0.0,1.0,1.0,1.0,815.0,1.0,0.0,0.0
790211.0,0.0,2.0,1.0,2.0,813.0,1.0,0.0,0.0
790211.0,0.0,3.0,1.0,3.0,625.0,1.0,0.0,0.0
790211.0,0.0,4.0,1.0,4.0,693.0,1.0,0.0,0.0
790211.0,0.0,5.0,1.0,5.0,487.0,1.0,0.0,2.0
790211.0,0.0,6.0,0.0,6.0,432.0,1.0,0.0,0.0
790211.0,0.0,1.0,1.0,1.0,121.0,2.0,3.0,0.0
790211.0,0.0,2.0,1.0,2.0,239.0,2.0,3.0,0.0
790211.0,0.0,3.0,1.0,3.0,622.0,2.0,3.0,0.0
790211.0,0.0,4.0,1.0,4.0,955.0,2.0,3.0,2.0
790211.0,0.0,5.0,0.0,5.0,637.0,2.0,3.0,0.0
790211.0,0.0,1.0,1.0,1.0,842.0,3.0,3.0,0.0
790211.0,0.0,2.0,1.0,2.0,305.0,3.0,3.0,0.0
790211.0,0.0,3.0,1.0,3.0,354.0,3.0,3.0,0.0
790211.0,0.0,4.0,1.0,4.0,417.0,3.0,3.0,2.0
790211.0,0.0,5.0,0.0,5.0,752.0,3.0,3.0,0.0
790211.0,0.0,1.0,1.0,1.0,256.0,4.0,3.0,0.0
790211.0,0.0,2.0,1.0,2.0,295.0,4.0,3.0,0.0
790211.0,0.0,3.0,1.0,3.0,906.0,4.0,3.0,0.0
790211.0,0.0,4.0,1.0,4.0,866.0,4.0,3.0,2.0
790211.0,0.0,5.0,0.0,5.0,929.0,4.0,3.0,0.0
790211.0,0.0,1.0,1.0,1.0,1036.0,5.0,3.0,0.0
790211.0,0.0,2.0,1.0,2.0,317.0,5.0,3.0,0.0
790211.0,0.0,3.0,1.0,3.0,416.0,5.0,3.0,0.0
790211.0,0.0,4.0,1.0,4.0,372.0,5.0,3.0,1.0
790211.0,1.0,5.0,1.0,0.0,309.0,5.0,3.0,0.0
790211.0,0.0,1.0,1.0,1.0,341.0,6.0,5.0,0.0
790211.0,0.0,2.0,1.0,2.0,327.0,6.0,5.0,0.0
790211.0,0.0,3.0,1.0,3.0,283.0,6.0,5.0,0.0
790211.0,0.0,4.0,1.0,4.0,475.0,6.0,5.0,1.0
790211.0,1.0,5.0,1.0,0.0,364.0,6.0,5.0,0.0
790211.0,0.0,1.0,1.0,1.0,617.0,7.0,5.0,0.0
790211.0,0.0,2.0,1.0,2.0,328.0,7.0,5.0,0.0
790211.0,0.0,3.0,1.0,3.0,286.0,7.0,5.0,0.0
790211.0,0.0,4.0,1.0,4.0,436.0,7.0,5.0,2.0
790211.0,0.0,5.0,0.0,5.0,334.0,7.0,5.0,0.0
790211.0,0.0,1.0,1.0,1.0,477.0,8.0,3.0,0.0
790211.0,0.0,2.0,1.0,2.0,329.0,8.0,3.0,0.0
790211.0,0.0,3.0,1.0,3.0,291.0,8.0,3.0,0.0
790211.0,0.0,4.0,1.0,4.0,345.0,8.0,3.0,2.0
790211.0,0.0,5.0,0.0,5.0,1032.0,8.0,3.0,0.0
790211.0,0.0,1.0,1.0,1.0,797.0,9.0,3.0,0.0
790211.0,0.0,2.0,1.0,2.0,761.0,9.0,3.0,0.0
790211.0,0.0,3.0,1.0,3.0,570.0,9.0,3.0,2.0
790211.0,0.0,4.0,0.0,4.0,435.0,9.0,3.0,0.0
790211.0,0.0,1.0,1.0,1.0,614.0,10.0,3.0,0.0
790211.0,0.0,2.0,1.0,2.0,589.0,10.0,3.0,0.0
790211.0,0.0,3.0,1.0,3.0,382.0,10.0,3.0,0.0
790211.0,0.0,4.0,1.0,4.0,376.0,10.0,3.0,2.0
790211.0,0.0,5.0,0.0,5.0,469.0,10.0,3.0,0.0
790211.0,0.0,1.0,1.0,1.0,2304.0,11.0,3.0,0.0
790211.0,0.0,2.0,1.0,2.0,616.0,11.0,3.0,0.0
790211.0,0.0,3.0,1.0,3.0,451.0,11.0,3.0,0.0
790211.0,0.0,4.0,1.0,4.0,395.0,11.0,3.0,2.0
790211.0,0.0,5.0,0.0,5.0,334.0,11.0,3.0,0.0
790211.0,0.0,1.0,1.0,1.0,742.0,12.0,3.0,0.0
790211.0,0.0,2.0,1.0,2.0,374.0,12.0,3.0,0.0
790211.0,0.0,3.0,1.0,3.0,382.0,12.0,3.0,0.0
790211.0,0.0,4.0,1.0,4.0,357.0,12.0,3.0,2.0
790211.0,0.0,5.0,0.0,5.0,455.0,12.0,3.0,0.0
790211.0,0.0,1.0,1.0,1.0,545.0,13.0,3.0,0.0
790211.0,0.0,2.0,1.0,2.0,679.0,13.0,3.0,0.0
790211.0,0.0,3.0,1.0,3.0,624.0,13.0,3.0,0.0
790211.0,0.0,4.0,1.0,4.0,461.0,13.0,3.0,2.0
790211.0,0.0,5.0,0.0,5.0,503.0,13.0,3.0,0.0
790211.0,0.0,1.0,1.0,1.0,672.0,14.0,3.0,0.0
790211.0,0.0,2.0,1.0,2.0,579.0,14.0,3.0,0.0
790211.0,0.0,3.0,1.0,3.0,585.0,14.0,3.0,0.0
790211.0,0.0,4.0,1.0,4.0,597.0,14.0,3.0,2.0
790211.0,0.0,5.0,0.0,5.0,394.0,14.0,3.0,0.0
790211.0,0.0,1.0,1.0,1.0,784.0,15.0,3.0,0.0
790211.0,0.0,2.0,1.0,2.0,271.0,15.0,3.0,0.0
790211.0,0.0,3.0,1.0,3.0,1134.0,15.0,3.0,0.0
790211.0,0.0,4.0,1.0,4.0,1296.0,15.0,3.0,0.0
790221.0,0.0,1.0,1.0,1.0,1743.0,1.0,0.0,0.0
790221.0,0.0,2.0,1.0,2.0,542.0,1.0,0.0,0.0
790221.0,0.0,3.0,1.0,3.0,557.0,1.0,0.0,0.0
790221.0,0.0,4.0,1.0,4.0,485.0,1.0,0.0,0.0
790221.0,0.0,5.0,1.0,5.0,507.0,1.0,0.0,0.0
790221.0,0.0,6.0,1.0,6.0,657.0,1.0,0.0,1.0
790221.0,1.0,7.0,1.0,0.0,1348.0,1.0,0.0,0.0
790221.0,0.0,1.0,1.0,1.0,594.0,2.0,5.0,0.0
790221.0,0.0,2.0,1.0,2.0,532.0,2.0,5.0,0.0
790221.0,0.0,3.0,1.0,3.0,944.0,2.0,5.0,0.0
790221.0,0.0,4.0,1.0,4.0,597.0,2.0,5.0,0.0
790221.0,0.0,5.0,1.0,5.0,1110.0,2.0,5.0,0.0
790221.0,0.0,6.0,1.0,6.0,2447.0,2.0,5.0,2.0
790221.0,0.0,7.0,0.0,7.0,701.0,2.0,5.0,0.0
790221.0,0.0,1.0,1.0,1.0,776.0,3.0,3.0,0.0
790221.0,0.0,2.0,1.0,2.0,731.0,3.0,3.0,0.0
790221.0,0.0,3.0,1.0,3.0,1555.0,3.0,3.0,0.0
790221.0,0.0,4.0,1.0,4.0,1827.0,3.0,3.0,0.0
790221.0,0.0,5.0,1.0,5.0,672.0,3.0,3.0,1.0
790221.0,1.0,6.0,1.0,0.0,441.0,3.0,3.0,0.0
790221.0,0.0,1.0,1.0,1.0,708.0,4.0,5.0,0.0
790221.0,0.0,2.0,1.0,2.0,530.0,4.0,5.0,0.0
790221.0,0.0,3.0,1.0,3.0,657.0,4.0,5.0,0.0
790221.0,0.0,4.0,1.0,4.0,1488.0,4.0,5.0,0.0
790221.0,0.0,5.0,1.0,5.0,400.0,4.0,5.0,2.0
790221.0,0.0,6.0,0.0,6.0,758.0,4.0,5.0,0.0
790221.0,0.0,1.0,1.0,1.0,693.0,5.0,3.0,0.0
790221.0,0.0,2.0,1.0,2.0,1134.0,5.0,3.0,0.0
790221.0,0.0,3.0,1.0,3.0,641.0,5.0,3.0,0.0
790221.0,0.0,4.0,1.0,4.0,454.0,5.0,3.0,0.0
790221.0,0.0,5.0,1.0,5.0,855.0,5.0,3.0,1.0
790221.0,1.0,6.0,1.0,0.0,560.0,5.0,3.0,0.0
790221.0,0.0,1.0,1.0,1.0,855.0,6.0,5.0,0.0
790221.0,0.0,2.0,1.0,2.0,355.0,6.0,5.0,0.0
790221.0,0.0,3.0,1.0,3.0,456.0,6.0,5.0,0.0
790221.0,0.0,4.0,1.0,4.0,421.0,6.0,5.0,0.0
790221.0,0.0,5.0,1.0,5.0,419.0,6.0,5.0,2.0
790221.0,0.0,6.0,0.0,6.0,456.0,6.0,5.0,0.0
790221.0,0.0,1.0,1.0,1.0,1083.0,7.0,3.0,0.0
790221.0,0.0,2.0,1.0,2.0,471.0,7.0,3.0,0.0
790221.0,0.0,3.0,1.0,3.0,833.0,7.0,3.0,0.0
790221.0,0.0,4.0,1.0,4.0,529.0,7.0,3.0,2.0
790221.0,0.0,5.0,0.0,5.0,407.0,7.0,3.0,0.0
790221.0,0.0,1.0,1.0,1.0,462.0,8.0,3.0,0.0
790221.0,0.0,2.0,1.0,2.0,402.0,8.0,3.0,0.0
790221.0,0.0,3.0,1.0,3.0,561.0,8.0,3.0,0.0
790221.0,0.0,4.0,1.0,4.0,549.0,8.0,3.0,2.0
790221.0,0.0,5.0,0.0,5.0,386.0,8.0,3.0,0.0
790221.0,0.0,1.0,1.0,1.0,587.0,9.0,3.0,0.0
790221.0,0.0,2.0,1.0,2.0,330.0,9.0,3.0,0.0
790221.0,0.0,3.0,1.0,3.0,426.0,9.0,3.0,0.0
790221.0,0.0,4.0,1.0,4.0,601.0,9.0,3.0,2.0
790221.0,0.0,5.0,0.0,5.0,1450.0,9.0,3.0,0.0
790221.0,0.0,1.0,1.0,1.0,796.0,10.0,3.0,0.0
790221.0,0.0,2.0,1.0,2.0,368.0,10.0,3.0,0.0
790221.0,0.0,3.0,1.0,3.0,335.0,10.0,3.0,1.0
790221.0,1.0,4.0,1.0,0.0,422.0,10.0,3.0,0.0
790221.0,0.0,1.0,1.0,1.0,649.0,11.0,5.0,0.0
790221.0,0.0,2.0,1.0,2.0,1020.0,11.0,5.0,0.0
790221.0,0.0,3.0,1.0,3.0,400.0,11.0,5.0,0.0
790221.0,0.0,4.0,1.0,4.0,458.0,11.0,5.0,2.0
790221.0,0.0,5.0,0.0,5.0,818.0,11.0,5.0,0.0
790221.0,0.0,1.0,1.0,1.0,659.0,12.0,3.0,0.0
790221.0,0.0,2.0,1.0,2.0,365.0,12.0,3.0,0.0
790221.0,0.0,3.0,1.0,3.0,386.0,12.0,3.0,0.0
790221.0,0.0,4.0,1.0,4.0,640.0,12.0,3.0,2.0
790221.0,0.0,5.0,0.0,5.0,446.0,12.0,3.0,0.0
790221.0,0.0,1.0,1.0,1.0,479.0,13.0,3.0,0.0
790221.0,0.0,2.0,1.0,2.0,510.0,13.0,3.0,0.0
790221.0,0.0,3.0,1.0,3.0,461.0,13.0,3.0,0.0
790221.0,0.0,4.0,1.0,4.0,445.0,13.0,3.0,2.0
790221.0,0.0,5.0,0.0,5.0,360.0,13.0,3.0,0.0
790221.0,0.0,1.0,1.0,1.0,579.0,14.0,3.0,0.0
790221.0,0.0,2.0,1.0,2.0,362.0,14.0,3.0,0.0
790221.0,0.0,3.0,1.0,3.0,448.0,14.0,3.0,0.0
790221.0,0.0,4.0,1.0,4.0,442.0,14.0,3.0,0.0
790221.0,0.0,5.0,1.0,5.0,366.0,14.0,3.0,0.0
790411.0,0.0,1.0,1.0,1.0,1003.0,1.0,0.0,0.0
790411.0,0.0,2.0,1.0,2.0,886.0,1.0,0.0,0.0
790411.0,0.0,3.0,1.0,3.0,623.0,1.0,0.0,0.0
790411.0,0.0,4.0,1.0,4.0,724.0,1.0,0.0,0.0
790411.0,0.0,5.0,1.0,5.0,638.0,1.0,0.0,0.0
790411.0,0.0,6.0,1.0,6.0,505.0,1.0,0.0,0.0
790411.0,0.0,1.0,1.0,1.0,751.0,2.0,0.0,0.0
790411.0,0.0,2.0,1.0,2.0,974.0,2.0,0.0,0.0
790411.0,0.0,3.0,1.0,3.0,811.0,2.0,0.0,0.0
790411.0,0.0,4.0,1.0,4.0,589.0,2.0,0.0,0.0
790411.0,0.0,5.0,1.0,5.0,884.0,2.0,0.0,0.0
790411.0,0.0,6.0,1.0,6.0,505.0,2.0,0.0,2.0
790411.0,0.0,7.0,0.0,7.0,609.0,2.0,0.0,0.0
790411.0,0.0,1.0,1.0,1.0,803.0,3.0,3.0,0.0
790411.0,0.0,2.0,1.0,2.0,670.0,3.0,3.0,0.0
790411.0,0.0,3.0,1.0,3.0,693.0,3.0,3.0,0.0
790411.0,0.0,4.0,1.0,4.0,450.0,3.0,3.0,0.0
790411.0,0.0,5.0,1.0,5.0,635.0,3.0,3.0,0.0
790411.0,0.0,6.0,1.0,6.0,474.0,3.0,3.0,2.0
790411.0,0.0,7.0,0.0,7.0,2764.0,3.0,3.0,0.0
790411.0,0.0,1.0,1.0,1.0,777.0,4.0,3.0,0.0
790411.0,0.0,2.0,1.0,2.0,990.0,4.0,3.0,0.0
790411.0,0.0,3.0,1.0,3.0,742.0,4.0,3.0,0.0
790411.0,0.0,4.0,1.0,4.0,880.0,4.0,3.0,0.0
790411.0,0.0,5.0,1.0,5.0,1817.0,4.0,3.0,1.0
790411.0,1.0,6.0,1.0,0.0,918.0,4.0,3.0,0.0
790411.0,0.0,1.0,1.0,1.0,734.0,5.0,5.0,0.0
790411.0,0.0,2.0,1.0,2.0,755.0,5.0,5.0,0.0
790411.0,0.0,3.0,1.0,3.0,716.0,5.0,5.0,0.0
790411.0,0.0,4.0,1.0,4.0,847.0,5.0,5.0,0.0
790411.0,0.0,5.0,1.0,5.0,608.0,5.0,5.0,2.0
790411.0,0.0,6.0,0.0,6.0,1819.0,5.0,5.0,0.0
790411.0,0.0,1.0,1.0,1.0,804.0,6.0,3.0,0.0
790411.0,0.0,2.0,1.0,2.0,696.0,6.0,3.0,0.0
790411.0,0.0,3.0,1.0,3.0,673.0,6.0,3.0,0.0
790411.0,0.0,4.0,1.0,4.0,799.0,6.0,3.0,0.0
790411.0,0.0,5.0,1.0,5.0,504.0,6.0,3.0,1.0
790411.0,1.0,6.0,1.0,0.0,669.0,6.0,3.0,0.0
790411.0,0.0,1.0,1.0,1.0,739.0,7.0,5.0,0.0
790411.0,0.0,2.0,1.0,2.0,853.0,7.0,5.0,0.0
790411.0,0.0,3.0,1.0,3.0,710.0,7.0,5.0,0.0
790411.0,0.0,4.0,1.0,4.0,574.0,7.0,5.0,0.0
790411.0,0.0,5.0,1.0,5.0,514.0,7.0,5.0,2.0
790411.0,0.0,6.0,0.0,6.0,1899.0,7.0,5.0,0.0
790411.0,0.0,1.0,1.0,1.0,655.0,8.0,3.0,0.0
790411.0,0.0,2.0,1.0,2.0,823.0,8.0,3.0,0.0
790411.0,0.0,3.0,1.0,3.0,2359.0,8.0,3.0,0.0
790411.0,0.0,4.0,1.0,4.0,655.0,8.0,3.0,0.0
790411.0,0.0,5.0,1.0,5.0,594.0,8.0,3.0,2.0
790411.0,0.0,6.0,0.0,6.0,617.0,8.0,3.0,0.0
790411.0,0.0,1.0,1.0,1.0,867.0,9.0,3.0,0.0
790411.0,0.0,2.0,1.0,2.0,890.0,9.0,3.0,0.0
790411.0,0.0,3.0,1.0,3.0,720.0,9.0,3.0,0.0
790411.0,0.0,4.0,1.0,4.0,907.0,9.0,3.0,0.0
790411.0,0.0,5.0,1.0,5.0,665.0,9.0,3.0,2.0
790411.0,0.0,6.0,0.0,6.0,563.0,9.0,3.0,0.0
790411.0,0.0,1.0,1.0,1.0,829.0,10.0,3.0,0.0
790411.0,0.0,2.0,1.0,2.0,619.0,10.0,3.0,0.0
790411.0,0.0,3.0,1.0,3.0,934.0,10.0,3.0,0.0
790411.0,0.0,4.0,1.0,4.0,731.0,10.0,3.0,1.0
790411.0,1.0,5.0,1.0,0.0,605.0,10.0,3.0,0.0
790411.0,0.0,1.0,1.0,1.0,435.0,11.0,5.0,0.0
790411.0,0.0,2.0,1.0,2.0,676.0,11.0,5.0,0.0
790411.0,0.0,3.0,1.0,3.0,524.0,11.0,5.0,0.0
790411.0,0.0,4.0,1.0,4.0,690.0,11.0,5.0,2.0
790411.0,0.0,5.0,0.0,5.0,572.0,11.0,5.0,0.0
790411.0,0.0,1.0,1.0,1.0,954.0,12.0,3.0,0.0
790411.0,0.0,2.0,1.0,2.0,979.0,12.0,3.0,0.0
790411.0,0.0,3.0,1.0,3.0,1052.0,12.0,3.0,0.0
790411.0,0.0,4.0,1.0,4.0,441.0,12.0,3.0,1.0
790411.0,1.0,5.0,1.0,0.0,2134.0,12.0,3.0,0.0
790411.0,0.0,1.0,1.0,1.0,841.0,13.0,5.0,0.0
790411.0,0.0,2.0,1.0,2.0,680.0,13.0,5.0,0.0
790411.0,0.0,3.0,1.0,3.0,647.0,13.0,5.0,0.0
790411.0,0.0,4.0,1.0,4.0,1457.0,13.0,5.0,0.0
790421.0,0.0,1.0,1.0,1.0,1001.0,1.0,0.0,0.0
790421.0,0.0,2.0,1.0,2.0,706.0,1.0,0.0,0.0
790421.0,0.0,3.0,1.0,3.0,1543.0,1.0,0.0,0.0
790421.0,0.0,4.0,1.0,4.0,959.0,1.0,0.0,0.0
790421.0,0.0,5.0,1.0,5.0,1098.0,1.0,0.0,0.0
790421.0,0.0,6.0,1.0,6.0,457.0,1.0,0.0,2.0
790421.0,0.0,7.0,0.0,7.0,598.0,1.0,0.0,0.0
790421.0,0.0,1.0,1.0,1.0,1323.0,2.0,3.0,0.0
790421.0,0.0,2.0,1.0,2.0,720.0,2.0,3.0,0.0
790421.0,0.0,3.0,1.0,3.0,1349.0,2.0,3.0,0.0
790421.0,0.0,4.0,1.0,4.0,1234.0,2.0,3.0,0.0
790421.0,0.0,5.0,1.0,5.0,1189.0,2.0,3.0,0.0
790421.0,0.0,6.0,1.0,6.0,671.0,2.0,3.0,1.0
790421.0,1.0,7.0,1.0,0.0,795.0,2.0,3.0,0.0
790421.0,0.0,1.0,1.0,1.0,1314.0,3.0,5.0,0.0
790421.0,0.0,2.0,1.0,2.0,540.0,3.0,5.0,0.0
790421.0,0.0,3.0,1.0,3.0,920.0,3.0,5.0,0.0
790421.0,0.0,4.0,1.0,4.0,1048.0,3.0,5.0,0.0
790421.0,0.0,5.0,1.0,5.0,1376.0,3.0,5.0,0.0
790421.0,0.0,6.0,1.0,6.0,954.0,3.0,5.0,2.0
790421.0,0.0,7.0,0.0,7.0,2046.0,3.0,5.0,0.0
790421.0,0.0,1.0,1.0,1.0,1204.0,4.0,3.0,0.0
790421.0,0.0,2.0,1.0,2.0,878.0,4.0,3.0,0.0
790421.0,0.0,3.0,1.0,3.0,1018.0,4.0,3.0,0.0
790421.0,0.0,4.0,1.0,4.0,1430.0,4.0,3.0,0.0
790421.0,0.0,5.0,1.0,5.0,1606.0,4.0,3.0,2.0
790421.0,0.0,6.0,0.0,6.0,1092.0,4.0,3.0,0.0
790421.0,0.0,1.0,1.0,1.0,1559.0,5.0,3.0,0.0
790421.0,0.0,2.0,1.0,2.0,911.0,5.0,3.0,0.0
790421.0,0.0,3.0,1.0,3.0,1397.0,5.0,3.0,0.0
790421.0,0.0,4.0,1.0,4.0,1294.0,5.0,3.0,0.0
790421.0,0.0,5.0,1.0,5.0,1295.0,5.0,3.0,2.0
790421.0,0.0,6.0,0.0,6.0,1300.0,5.0,3.0,0.0
790421.0,0.0,1.0,1.0,1.0,2325.0,6.0,3.0,0.0
790421.0,0.0,2.0,1.0,2.0,893.0,6.0,3.0,0.0
790421.0,0.0,3.0,1.0,3.0,1302.0,6.0,3.0,0.0
790421.0,0.0,4.0,1.0,4.0,461.0,6.0,3.0,1.0
790421.0,1.0,5.0,1.0,0.0,550.0,6.0,3.0,0.0
790421.0,0.0,1.0,1.0,1.0,994.0,7.0,5.0,0.0
790421.0,0.0,2.0,1.0,2.0,389.0,7.0,5.0,0.0
790421.0,0.0,3.0,1.0,3.0,946.0,7.0,5.0,0.0
790421.0,0.0,4.0,1.0,4.0,1611.0,7.0,5.0,2.0
790421.0,0.0,5.0,0.0,5.0,507.0,7.0,5.0,0.0
790421.0,0.0,1.0,1.0,1.0,1509.0,8.0,3.0,0.0
790421.0,0.0,2.0,1.0,2.0,898.0,8.0,3.0,0.0
790421.0,0.0,3.0,1.0,3.0,543.0,8.0,3.0,0.0
790421.0,0.0,4.0,1.0,4.0,663.0,8.0,3.0,2.0
790421.0,0.0,5.0,0.0,5.0,1361.0,8.0,3.0,0.0
790421.0,0.0,1.0,1.0,1.0,730.0,9.0,3.0,0.0
790421.0,0.0,2.0,1.0,2.0,1167.0,9.0,3.0,0.0
790421.0,0.0,3.0,1.0,3.0,919.0,9.0,3.0,0.0
790421.0,0.0,4.0,1.0,4.0,576.0,9.0,3.0,2.0
790421.0,0.0,5.0,0.0,5.0,549.0,9.0,3.0,0.0
790421.0,0.0,1.0,1.0,1.0,753.0,10.0,3.0,0.0
790421.0,0.0,2.0,1.0,2.0,502.0,10.0,3.0,2.0
790421.0,0.0,3.0,0.0,3.0,478.0,10.0,3.0,0.0
790421.0,0.0,1.0,1.0,1.0,476.0,11.0,3.0,0.0
790421.0,0.0,2.0,1.0,2.0,549.0,11.0,3.0,2.0
790421.0,0.0,3.0,0.0,3.0,732.0,11.0,3.0,0.0
790421.0,0.0,1.0,1.0,1.0,735.0,12.0,3.0,0.0
790421.0,0.0,2.0,0.0,2.0,1200.0,12.0,3.0,0.0
790421.0,0.0,1.0,1.0,1.0,757.0,13.0,3.0,0.0
790421.0,0.0,2.0,1.0,2.0,761.0,13.0,3.0,2.0
790421.0,0.0,3.0,0.0,3.0,457.0,13.0,3.0,0.0
790421.0,0.0,1.0,1.0,1.0,1175.0,14.0,3.0,0.0
790421.0,0.0,2.0,1.0,2.0,522.0,14.0,3.0,0.0
790421.0,0.0,3.0,1.0,3.0,725.0,14.0,3.0,0.0
790711.0,0.0,1.0,1.0,1.0,697.0,1.0,0.0,0.0
790711.0,0.0,2.0,1.0,2.0,686.0,1.0,0.0,0.0
790711.0,0.0,3.0,1.0,3.0,603.0,1.0,0.0,0.0
790711.0,0.0,4.0,1.0,4.0,693.0,1.0,0.0,0.0
790711.0,0.0,5.0,1.0,5.0,703.0,1.0,0.0,2.0
790711.0,0.0,6.0,0.0,6.0,513.0,1.0,0.0,0.0
790711.0,0.0,1.0,1.0,1.0,730.0,2.0,3.0,0.0
790711.0,0.0,2.0,1.0,2.0,733.0,2.0,3.0,0.0
790711.0,0.0,3.0,1.0,3.0,571.0,2.0,3.0,0.0
790711.0,0.0,4.0,1.0,4.0,281.0,2.0,3.0,0.0
790711.0,0.0,5.0,1.0,5.0,340.0,2.0,3.0,2.0
790711.0,0.0,6.0,0.0,6.0,572.0,2.0,3.0,0.0
790711.0,0.0,1.0,1.0,1.0,712.0,3.0,3.0,0.0
790711.0,0.0,2.0,1.0,2.0,400.0,3.0,3.0,0.0
790711.0,0.0,3.0,1.0,3.0,311.0,3.0,3.0,0.0
790711.0,0.0,4.0,1.0,4.0,292.0,3.0,3.0,0.0
790711.0,0.0,5.0,1.0,5.0,618.0,3.0,3.0,2.0
790711.0,0.0,6.0,0.0,6.0,912.0,3.0,3.0,0.0
790711.0,0.0,1.0,1.0,1.0,570.0,4.0,3.0,0.0
790711.0,0.0,2.0,1.0,2.0,365.0,4.0,3.0,0.0
790711.0,0.0,3.0,1.0,3.0,479.0,4.0,3.0,0.0
790711.0,0.0,4.0,1.0,4.0,820.0,4.0,3.0,0.0
790711.0,0.0,5.0,1.0,5.0,687.0,4.0,3.0,2.0
790711.0,0.0,6.0,0.0,6.0,523.0,4.0,3.0,0.0
790711.0,0.0,1.0,1.0,1.0,620.0,5.0,3.0,0.0
790711.0,0.0,2.0,1.0,2.0,475.0,5.0,3.0,0.0
790711.0,0.0,3.0,1.0,3.0,635.0,5.0,3.0,0.0
790711.0,0.0,4.0,1.0,4.0,492.0,5.0,3.0,0.0
790711.0,0.0,5.0,1.0,5.0,998.0,5.0,3.0,1.0
790711.0,1.0,6.0,1.0,0.0,493.0,5.0,3.0,0.0
790711.0,0.0,1.0,1.0,1.0,445.0,6.0,5.0,0.0
790711.0,0.0,2.0,1.0,2.0,430.0,6.0,5.0,0.0
790711.0,0.0,3.0,1.0,3.0,537.0,6.0,5.0,0.0
790711.0,0.0,4.0,1.0,4.0,869.0,6.0,5.0,0.0
790711.0,0.0,5.0,1.0,5.0,867.0,6.0,5.0,2.0
790711.0,0.0,6.0,0.0,6.0,708.0,6.0,5.0,0.0
790711.0,0.0,1.0,1.0,1.0,789.0,7.0,3.0,0.0
790711.0,0.0,2.0,1.0,2.0,583.0,7.0,3.0,0.0
790711.0,0.0,3.0,1.0,3.0,528.0,7.0,3.0,0.0
790711.0,0.0,4.0,1.0,4.0,936.0,7.0,3.0,0.0
790711.0,0.0,5.0,1.0,5.0,697.0,7.0,3.0,2.0
790711.0,0.0,6.0,0.0,6.0,774.0,7.0,3.0,0.0
790711.0,0.0,1.0,1.0,1.0,510.0,8.0,3.0,0.0
790711.0,0.0,2.0,1.0,2.0,534.0,8.0,3.0,0.0
790711.0,0.0,3.0,1.0,3.0,516.0,8.0,3.0,0.0
790711.0,0.0,4.0,1.0,4.0,247.0,8.0,3.0,0.0
790711.0,0.0,5.0,1.0,5.0,401.0,8.0,3.0,1.0
790711.0,1.0,6.0,1.0,0.0,461.0,8.0,3.0,0.0
790711.0,0.0,1.0,1.0,1.0,555.0,9.0,5.0,0.0
790711.0,0.0,2.0,1.0,2.0,540.0,9.0,5.0,0.0
790711.0,0.0,3.0,1.0,3.0,477.0,9.0,5.0,0.0
790711.0,0.0,4.0,1.0,4.0,833.0,9.0,5.0,0.0
790711.0,0.0,5.0,1.0,5.0,1012.0,9.0,5.0,1.0
790711.0,1.0,6.0,1.0,0.0,542.0,9.0,5.0,0.0
790711.0,0.0,1.0,1.0,1.0,467.0,10.0,5.0,0.0
790711.0,0.0,2.0,1.0,2.0,677.0,10.0,5.0,0.0
790711.0,0.0,3.0,1.0,3.0,379.0,10.0,5.0,0.0
790711.0,0.0,4.0,1.0,4.0,414.0,10.0,5.0,0.0
790711.0,0.0,5.0,1.0,5.0,522.0,10.0,5.0,2.0
790711.0,0.0,6.0,0.0,6.0,399.0,10.0,5.0,0.0
790711.0,0.0,1.0,1.0,1.0,824.0,11.0,3.0,0.0
790711.0,0.0,2.0,1.0,2.0,673.0,11.0,3.0,0.0
790711.0,0.0,3.0,1.0,3.0,375.0,11.0,3.0,0.0
790711.0,0.0,4.0,1.0,4.0,592.0,11.0,3.0,0.0
790711.0,0.0,5.0,1.0,5.0,920.0,11.0,3.0,2.0
790711.0,0.0,6.0,0.0,6.0,636.0,11.0,3.0,0.0
790711.0,0.0,1.0,1.0,1.0,734.0,12.0,3.0,0.0
790711.0,0.0,2.0,1.0,2.0,623.0,12.0,3.0,0.0
790711.0,0.0,3.0,1.0,3.0,585.0,12.0,3.0,0.0
790711.0,0.0,4.0,1.0,4.0,1289.0,12.0,3.0,2.0
790711.0,0.0,5.0,0.0,5.0,433.0,12.0,3.0,0.0
790711.0,0.0,1.0,1.0,1.0,485.0,13.0,3.0,0.0
790711.0,0.0,2.0,1.0,2.0,457.0,13.0,3.0,0.0
790711.0,0.0,3.0,1.0,3.0,478.0,13.0,3.0,0.0
790711.0,0.0,4.0,1.0,4.0,465.0,13.0,3.0,2.0
790711.0,0.0,5.0,0.0,5.0,593.0,13.0,3.0,0.0
790711.0,0.0,1.0,1.0,1.0,723.0,14.0,3.0,0.0
790711.0,0.0,2.0,1.0,2.0,654.0,14.0,3.0,0.0
790711.0,0.0,3.0,1.0,3.0,1036.0,14.0,3.0,0.0
790711.0,0.0,4.0,1.0,4.0,496.0,14.0,3.0,0.0
790721.0,0.0,1.0,1.0,1.0,905.0,1.0,0.0,0.0
790721.0,0.0,2.0,1.0,2.0,610.0,1.0,0.0,0.0
790721.0,0.0,3.0,1.0,3.0,686.0,1.0,0.0,0.0
790721.0,0.0,4.0,1.0,4.0,405.0,1.0,0.0,1.0
790721.0,1.0,5.0,1.0,0.0,438.0,1.0,0.0,0.0
790721.0,0.0,1.0,1.0,1.0,693.0,2.0,5.0,0.0
790721.0,0.0,2.0,1.0,2.0,308.0,2.0,5.0,0.0
790721.0,0.0,3.0,1.0,3.0,498.0,2.0,5.0,0.0
790721.0,0.0,4.0,1.0,4.0,910.0,2.0,5.0,2.0
790721.0,0.0,5.0,0.0,5.0,597.0,2.0,5.0,0.0
790721.0,0.0,1.0,1.0,1.0,670.0,3.0,3.0,0.0
790721.0,0.0,2.0,1.0,2.0,383.0,3.0,3.0,0.0
790721.0,0.0,3.0,1.0,3.0,522.0,3.0,3.0,0.0
790721.0,0.0,4.0,1.0,4.0,461.0,3.0,3.0,1.0
790721.0,1.0,5.0,1.0,0.0,535.0,3.0,3.0,0.0
790721.0,0.0,1.0,1.0,1.0,714.0,4.0,5.0,0.0
790721.0,0.0,2.0,1.0,2.0,486.0,4.0,5.0,0.0
790721.0,0.0,3.0,1.0,3.0,368.0,4.0,5.0,2.0
790721.0,0.0,4.0,0.0,4.0,336.0,4.0,5.0,0.0
790721.0,0.0,1.0,1.0,1.0,403.0,5.0,3.0,0.0
790721.0,0.0,2.0,1.0,2.0,302.0,5.0,3.0,0.0
790721.0,0.0,3.0,1.0,3.0,703.0,5.0,3.0,0.0
790721.0,0.0,4.0,1.0,4.0,695.0,5.0,3.0,2.0
790721.0,0.0,5.0,0.0,5.0,588.0,5.0,3.0,0.0
790721.0,0.0,1.0,1.0,1.0,659.0,6.0,3.0,0.0
790721.0,0.0,2.0,1.0,2.0,142.0,6.0,3.0,0.0
790721.0,0.0,3.0,1.0,3.0,499.0,6.0,3.0,0.0
790721.0,0.0,4.0,1.0,4.0,394.0,6.0,3.0,2.0
790721.0,0.0,5.0,0.0,5.0,783.0,6.0,3.0,0.0
790721.0,0.0,1.0,1.0,1.0,515.0,7.0,3.0,0.0
790721.0,0.0,2.0,1.0,2.0,736.0,7.0,3.0,0.0
790721.0,0.0,3.0,1.0,3.0,554.0,7.0,3.0,0.0
790721.0,0.0,4.0,1.0,4.0,901.0,7.0,3.0,2.0
790721.0,0.0,5.0,0.0,5.0,1024.0,7.0,3.0,0.0
790721.0,0.0,1.0,1.0,1.0,745.0,8.0,3.0,0.0
790721.0,0.0,2.0,1.0,2.0,353.0,8.0,3.0,0.0
790721.0,0.0,3.0,1.0,3.0,225.0,8.0,3.0,0.0
790721.0,0.0,4.0,1.0,4.0,671.0,8.0,3.0,2.0
790721.0,0.0,5.0,0.0,5.0,616.0,8.0,3.0,0.0
790721.0,0.0,1.0,1.0,1.0,483.0,9.0,3.0,0.0
790721.0,0.0,2.0,1.0,2.0,400.0,9.0,3.0,0.0
790721.0,0.0,3.0,1.0,3.0,511.0,9.0,3.0,0.0
790721.0,0.0,4.0,1.0,4.0,406.0,9.0,3.0,2.0
790721.0,0.0,5.0,0.0,5.0,610.0,9.0,3.0,0.0
790721.0,0.0,1.0,1.0,1.0,699.0,10.0,3.0,0.0
790721.0,0.0,2.0,1.0,2.0,744.0,10.0,3.0,0.0
790721.0,0.0,3.0,1.0,3.0,749.0,10.0,3.0,0.0
790721.0,0.0,4.0,1.0,4.0,579.0,10.0,3.0,2.0
790721.0,0.0,5.0,0.0,5.0,464.0,10.0,3.0,0.0
790721.0,0.0,1.0,1.0,1.0,1011.0,11.0,3.0,0.0
790721.0,0.0,2.0,1.0,2.0,653.0,11.0,3.0,0.0
790721.0,0.0,3.0,1.0,3.0,439.0,11.0,3.0,0.0
790721.0,0.0,4.0,1.0,4.0,715.0,11.0,3.0,2.0
790721.0,0.0,5.0,0.0,5.0,566.0,11.0,3.0,0.0
790721.0,0.0,1.0,1.0,1.0,1441.0,12.0,3.0,0.0
790721.0,0.0,2.0,1.0,2.0,105.0,12.0,3.0,0.0
790721.0,0.0,3.0,1.0,3.0,594.0,12.0,3.0,0.0
790721.0,0.0,4.0,1.0,4.0,410.0,12.0,3.0,1.0
790721.0,1.0,5.0,1.0,0.0,310.0,12.0,3.0,0.0
790721.0,0.0,1.0,1.0,1.0,519.0,13.0,5.0,0.0
790721.0,0.0,2.0,1.0,2.0,391.0,13.0,5.0,0.0
790721.0,0.0,3.0,1.0,3.0,473.0,13.0,5.0,1.0
790721.0,1.0,4.0,1.0,0.0,488.0,13.0,5.0,0.0
790721.0,0.0,1.0,1.0,1.0,390.0,14.0,5.0,0.0
790721.0,0.0,2.0,1.0,2.0,553.0,14.0,5.0,0.0
790721.0,0.0,3.0,1.0,3.0,315.0,14.0,5.0,0.0
790721.0,0.0,4.0,1.0,4.0,449.0,14.0,5.0,2.0
790721.0,0.0,5.0,0.0,5.0,786.0,14.0,5.0,0.0
790721.0,0.0,1.0,1.0,1.0,601.0,15.0,3.0,0.0
790721.0,0.0,2.0,0.0,2.0,413.0,15.0,3.0,0.0
790721.0,0.0,1.0,1.0,1.0,318.0,16.0,3.0,0.0
790721.0,0.0,2.0,1.0,2.0,165.0,16.0,3.0,0.0
790911.0,0.0,1.0,1.0,1.0,564.0,1.0,0.0,0.0
790911.0,0.0,2.0,1.0,2.0,1261.0,1.0,0.0,0.0
790911.0,0.0,3.0,1.0,3.0,615.0,1.0,0.0,0.0
790911.0,0.0,4.0,1.0,4.0,871.0,1.0,0.0,0.0
790911.0,0.0,5.0,1.0,5.0,679.0,1.0,0.0,0.0
790911.0,0.0,6.0,1.0,6.0,771.0,1.0,0.0,2.0
790911.0,0.0,7.0,0.0,7.0,1468.0,1.0,0.0,0.0
790911.0,0.0,1.0,1.0,1.0,726.0,2.0,3.0,0.0
790911.0,0.0,2.0,1.0,2.0,528.0,2.0,3.0,0.0
790911.0,0.0,3.0,1.0,3.0,510.0,2.0,3.0,0.0
790911.0,0.0,4.0,1.0,4.0,648.0,2.0,3.0,0.0
790911.0,0.0,5.0,1.0,5.0,815.0,2.0,3.0,2.0
790911.0,0.0,6.0,0.0,6.0,788.0,2.0,3.0,0.0
790911.0,0.0,1.0,1.0,1.0,768.0,3.0,3.0,0.0
790911.0,0.0,2.0,1.0,2.0,576.0,3.0,3.0,0.0
790911.0,0.0,3.0,1.0,3.0,345.0,3.0,3.0,0.0
790911.0,0.0,4.0,1.0,4.0,788.0,3.0,3.0,0.0
790911.0,0.0,5.0,1.0,5.0,1242.0,3.0,3.0,2.0
790911.0,0.0,6.0,0.0,6.0,399.0,3.0,3.0,0.0
790911.0,0.0,1.0,1.0,1.0,864.0,4.0,3.0,0.0
790911.0,0.0,2.0,1.0,2.0,508.0,4.0,3.0,0.0
790911.0,0.0,3.0,1.0,3.0,1009.0,4.0,3.0,0.0
790911.0,0.0,4.0,1.0,4.0,920.0,4.0,3.0,0.0
790911.0,0.0,5.0,1.0,5.0,900.0,4.0,3.0,2.0
790911.0,0.0,6.0,0.0,6.0,735.0,4.0,3.0,0.0
790911.0,0.0,1.0,1.0,1.0,1325.0,5.0,3.0,0.0
790911.0,0.0,2.0,1.0,2.0,620.0,5.0,3.0,0.0
790911.0,0.0,3.0,1.0,3.0,438.0,5.0,3.0,0.0
790911.0,0.0,4.0,1.0,4.0,2540.0,5.0,3.0,0.0
790911.0,0.0,5.0,1.0,5.0,884.0,5.0,3.0,1.0
790911.0,1.0,6.0,1.0,0.0,2341.0,5.0,3.0,0.0
790911.0,0.0,1.0,1.0,1.0,747.0,6.0,5.0,0.0
790911.0,0.0,2.0,1.0,2.0,739.0,6.0,5.0,0.0
790911.0,0.0,3.0,1.0,3.0,523.0,6.0,5.0,0.0
790911.0,0.0,4.0,1.0,4.0,1131.0,6.0,5.0,2.0
790911.0,0.0,5.0,0.0,5.0,309.0,6.0,5.0,0.0
790911.0,0.0,1.0,1.0,1.0,789.0,7.0,3.0,0.0
790911.0,0.0,2.0,1.0,2.0,385.0,7.0,3.0,0.0
790911.0,0.0,3.0,1.0,3.0,532.0,7.0,3.0,0.0
790911.0,0.0,4.0,1.0,4.0,997.0,7.0,3.0,2.0
790911.0,0.0,5.0,0.0,5.0,815.0,7.0,3.0,0.0
790911.0,0.0,1.0,1.0,1.0,605.0,8.0,3.0,0.0
790911.0,0.0,2.0,1.0,2.0,509.0,8.0,3.0,0.0
790911.0,0.0,3.0,1.0,3.0,618.0,8.0,3.0,0.0
790911.0,0.0,4.0,1.0,4.0,787.0,8.0,3.0,1.0
790911.0,1.0,5.0,1.0,0.0,446.0,8.0,3.0,0.0
790911.0,0.0,1.0,1.0,1.0,1082.0,9.0,5.0,0.0
790911.0,0.0,2.0,1.0,2.0,416.0,9.0,5.0,0.0
790911.0,0.0,3.0,1.0,3.0,404.0,9.0,5.0,0.0
790911.0,0.0,4.0,1.0,4.0,886.0,9.0,5.0,2.0
790911.0,0.0,5.0,0.0,5.0,1599.0,9.0,5.0,0.0
790911.0,0.0,1.0,1.0,1.0,982.0,10.0,3.0,0.0
790911.0,0.0,2.0,1.0,2.0,665.0,10.0,3.0,0.0
790911.0,0.0,3.0,1.0,3.0,1076.0,10.0,3.0,0.0
790911.0,0.0,4.0,1.0,4.0,1510.0,10.0,3.0,2.0
790911.0,0.0,5.0,0.0,5.0,1441.0,10.0,3.0,0.0
790911.0,0.0,1.0,1.0,1.0,957.0,11.0,3.0,0.0
790911.0,0.0,2.0,1.0,2.0,555.0,11.0,3.0,2.0
790911.0,0.0,3.0,0.0,3.0,616.0,11.0,3.0,0.0
790911.0,0.0,1.0,1.0,1.0,1568.0,12.0,3.0,0.0
790911.0,0.0,2.0,1.0,2.0,573.0,12.0,3.0,1.0
790911.0,1.0,3.0,1.0,0.0,1549.0,12.0,3.0,0.0
790911.0,0.0,1.0,1.0,1.0,656.0,13.0,5.0,0.0
790911.0,0.0,2.0,1.0,2.0,177.0,13.0,5.0,2.0
790911.0,0.0,3.0,0.0,3.0,1078.0,13.0,5.0,0.0
790911.0,0.0,1.0,1.0,1.0,1343.0,14.0,3.0,0.0
790911.0,1.0,2.0,1.0,0.0,743.0,14.0,3.0,0.0
790911.0,0.0,1.0,1.0,1.0,710.0,15.0,5.0,0.0
790911.0,0.0,2.0,1.0,2.0,326.0,15.0,5.0,0.0
790921.0,0.0,1.0,1.0,1.0,694.0,1.0,0.0,0.0
790921.0,0.0,2.0,1.0,2.0,632.0,1.0,0.0,0.0
790921.0,0.0,3.0,1.0,3.0,748.0,1.0,0.0,0.0
790921.0,0.0,4.0,1.0,4.0,818.0,1.0,0.0,1.0
790921.0,1.0,5.0,1.0,0.0,470.0,1.0,0.0,0.0
790921.0,0.0,1.0,1.0,1.0,624.0,2.0,5.0,0.0
790921.0,0.0,2.0,1.0,2.0,457.0,2.0,5.0,0.0
790921.0,0.0,3.0,1.0,3.0,735.0,2.0,5.0,0.0
790921.0,0.0,4.0,1.0,4.0,624.0,2.0,5.0,2.0
790921.0,0.0,5.0,0.0,5.0,623.0,2.0,5.0,0.0
790921.0,0.0,1.0,1.0,1.0,693.0,3.0,3.0,0.0
790921.0,0.0,2.0,1.0,2.0,424.0,3.0,3.0,0.0
790921.0,0.0,3.0,1.0,3.0,420.0,3.0,3.0,0.0
790921.0,0.0,4.0,1.0,4.0,1119.0,3.0,3.0,2.0
790921.0,0.0,5.0,0.0,5.0,597.0,3.0,3.0,0.0
790921.0,0.0,1.0,1.0,1.0,548.0,4.0,3.0,0.0
790921.0,0.0,2.0,1.0,2.0,1011.0,4.0,3.0,0.0
790921.0,0.0,3.0,1.0,3.0,866.0,4.0,3.0,1.0
790921.0,1.0,4.0,1.0,0.0,707.0,4.0,3.0,0.0
790921.0,0.0,1.0,1.0,1.0,309.0,5.0,5.0,0.0
790921.0,0.0,2.0,1.0,2.0,430.0,5.0,5.0,0.0
790921.0,0.0,3.0,1.0,3.0,1168.0,5.0,5.0,2.0
790921.0,0.0,4.0,0.0,4.0,1021.0,5.0,5.0,0.0
790921.0,0.0,1.0,1.0,1.0,607.0,6.0,3.0,0.0
790921.0,0.0,2.0,1.0,2.0,498.0,6.0,3.0,0.0
790921.0,0.0,3.0,1.0,3.0,1235.0,6.0,3.0,2.0
790921.0,0.0,4.0,0.0,4.0,1468.0,6.0,3.0,0.0
790921.0,0.0,1.0,1.0,1.0,728.0,7.0,3.0,0.0
790921.0,0.0,2.0,1.0,2.0,1386.0,7.0,3.0,0.0
790921.0,0.0,3.0,1.0,3.0,2256.0,7.0,3.0,2.0
790921.0,0.0,4.0,0.0,4.0,545.0,7.0,3.0,0.0
790921.0,0.0,1.0,1.0,1.0,761.0,8.0,3.0,0.0
790921.0,0.0,2.0,1.0,2.0,543.0,8.0,3.0,0.0
790921.0,0.0,3.0,1.0,3.0,622.0,8.0,3.0,2.0
790921.0,0.0,4.0,0.0,4.0,1516.0,8.0,3.0,0.0
790921.0,0.0,1.0,1.0,1.0,705.0,9.0,3.0,0.0
790921.0,0.0,2.0,1.0,2.0,574.0,9.0,3.0,0.0
790921.0,0.0,3.0,1.0,3.0,925.0,9.0,3.0,2.0
790921.0,0.0,4.0,0.0,4.0,515.0,9.0,3.0,0.0
790921.0,0.0,1.0,1.0,1.0,494.0,10.0,3.0,0.0
790921.0,0.0,2.0,1.0,2.0,819.0,10.0,3.0,0.0
790921.0,0.0,3.0,1.0,3.0,1624.0,10.0,3.0,2.0
790921.0,0.0,4.0,0.0,4.0,748.0,10.0,3.0,0.0
790921.0,0.0,1.0,1.0,1.0,661.0,11.0,3.0,0.0
790921.0,0.0,2.0,1.0,2.0,2839.0,11.0,3.0,0.0
790921.0,0.0,3.0,1.0,3.0,1917.0,11.0,3.0,2.0
790921.0,0.0,4.0,0.0,4.0,1070.0,11.0,3.0,0.0
790921.0,0.0,1.0,1.0,1.0,1290.0,12.0,3.0,0.0
790921.0,0.0,2.0,1.0,2.0,1820.0,12.0,3.0,0.0
790921.0,0.0,3.0,1.0,3.0,2366.0,12.0,3.0,2.0
790921.0,0.0,4.0,0.0,4.0,1573.0,12.0,3.0,0.0
790921.0,0.0,1.0,1.0,1.0,438.0,13.0,3.0,0.0
790921.0,0.0,2.0,1.0,2.0,961.0,13.0,3.0,0.0
790921.0,0.0,3.0,1.0,3.0,880.0,13.0,3.0,2.0
790921.0,0.0,4.0,0.0,4.0,666.0,13.0,3.0,0.0
790921.0,0.0,1.0,1.0,1.0,645.0,14.0,3.0,0.0
790921.0,0.0,2.0,1.0,2.0,1056.0,14.0,3.0,0.0
790921.0,0.0,3.0,1.0,3.0,639.0,14.0,3.0,2.0
790921.0,0.0,4.0,0.0,4.0,530.0,14.0,3.0,0.0
790921.0,0.0,1.0,1.0,1.0,743.0,15.0,3.0,0.0
790921.0,0.0,2.0,1.0,2.0,467.0,15.0,3.0,2.0
790921.0,0.0,3.0,0.0,3.0,479.0,15.0,3.0,0.0
790921.0,0.0,1.0,1.0,1.0,1217.0,16.0,3.0,0.0
790921.0,0.0,2.0,0.0,2.0,988.0,16.0,3.0,0.0
790921.0,0.0,1.0,1.0,1.0,347.0,17.0,3.0,0.0
791011.0,0.0,1.0,1.0,1.0,558.0,1.0,0.0,0.0
791011.0,0.0,2.0,1.0,2.0,447.0,1.0,0.0,0.0
791011.0,0.0,3.0,1.0,3.0,375.0,1.0,0.0,0.0
791011.0,0.0,4.0,1.0,4.0,382.0,1.0,0.0,0.0
791011.0,0.0,5.0,1.0,5.0,419.0,1.0,0.0,0.0
791011.0,0.0,6.0,1.0,6.0,408.0,1.0,0.0,2.0
791011.0,0.0,7.0,0.0,7.0,708.0,1.0,0.0,0.0
791011.0,0.0,1.0,1.0,1.0,491.0,2.0,3.0,0.0
791011.0,0.0,2.0,1.0,2.0,373.0,2.0,3.0,0.0
791011.0,0.0,3.0,1.0,3.0,383.0,2.0,3.0,0.0
791011.0,0.0,4.0,1.0,4.0,401.0,2.0,3.0,0.0
791011.0,0.0,5.0,1.0,5.0,349.0,2.0,3.0,0.0
791011.0,0.0,6.0,1.0,6.0,408.0,2.0,3.0,2.0
791011.0,0.0,7.0,0.0,7.0,478.0,2.0,3.0,0.0
791011.0,0.0,1.0,1.0,1.0,629.0,3.0,3.0,0.0
791011.0,0.0,2.0,1.0,2.0,522.0,3.0,3.0,0.0
791011.0,0.0,3.0,1.0,3.0,422.0,3.0,3.0,0.0
791011.0,0.0,4.0,1.0,4.0,404.0,3.0,3.0,0.0
791011.0,0.0,5.0,1.0,5.0,416.0,3.0,3.0,1.0
791011.0,1.0,6.0,1.0,0.0,549.0,3.0,3.0,0.0
791011.0,0.0,1.0,1.0,1.0,421.0,4.0,5.0,0.0
791011.0,0.0,2.0,1.0,2.0,351.0,4.0,5.0,0.0
791011.0,0.0,3.0,1.0,3.0,427.0,4.0,5.0,0.0
791011.0,0.0,4.0,1.0,4.0,764.0,4.0,5.0,2.0
791011.0,0.0,5.0,0.0,5.0,424.0,4.0,5.0,0.0
791011.0,0.0,1.0,1.0,1.0,550.0,5.0,3.0,0.0
791011.0,0.0,2.0,1.0,2.0,451.0,5.0,3.0,0.0
791011.0,0.0,3.0,1.0,3.0,343.0,5.0,3.0,0.0
791011.0,0.0,4.0,1.0,4.0,409.0,5.0,3.0,2.0
791011.0,0.0,5.0,0.0,5.0,739.0,5.0,3.0,0.0
791011.0,0.0,1.0,1.0,1.0,630.0,6.0,3.0,0.0
791011.0,0.0,2.0,1.0,2.0,456.0,6.0,3.0,0.0
791011.0,0.0,3.0,1.0,3.0,484.0,6.0,3.0,0.0
791011.0,0.0,4.0,1.0,4.0,489.0,6.0,3.0,1.0
791011.0,1.0,5.0,1.0,0.0,837.0,6.0,3.0,0.0
791011.0,0.0,1.0,1.0,1.0,516.0,7.0,5.0,0.0
791011.0,0.0,2.0,1.0,2.0,403.0,7.0,5.0,0.0
791011.0,0.0,3.0,1.0,3.0,587.0,7.0,5.0,2.0
791011.0,0.0,4.0,0.0,4.0,691.0,7.0,5.0,0.0
791011.0,0.0,1.0,1.0,1.0,490.0,8.0,3.0,0.0
791011.0,0.0,2.0,1.0,2.0,498.0,8.0,3.0,0.0
791011.0,0.0,3.0,1.0,3.0,432.0,8.0,3.0,2.0
791011.0,0.0,4.0,0.0,4.0,477.0,8.0,3.0,0.0
791011.0,0.0,1.0,1.0,1.0,661.0,9.0,3.0,0.0
791011.0,0.0,2.0,1.0,2.0,389.0,9.0,3.0,0.0
791011.0,0.0,3.0,1.0,3.0,328.0,9.0,3.0,1.0
791011.0,1.0,4.0,1.0,0.0,562.0,9.0,3.0,0.0
791011.0,0.0,1.0,1.0,1.0,503.0,10.0,5.0,0.0
791011.0,0.0,2.0,1.0,2.0,507.0,10.0,5.0,0.0
791011.0,0.0,3.0,1.0,3.0,657.0,10.0,5.0,2.0
791011.0,0.0,4.0,0.0,4.0,549.0,10.0,5.0,0.0
791011.0,0.0,1.0,1.0,1.0,650.0,11.0,3.0,0.0
791011.0,0.0,2.0,1.0,2.0,449.0,11.0,3.0,2.0
791011.0,0.0,3.0,0.0,3.0,542.0,11.0,3.0,0.0
791011.0,0.0,1.0,1.0,1.0,659.0,12.0,3.0,0.0
791011.0,0.0,2.0,1.0,2.0,507.0,12.0,3.0,1.0
791011.0,1.0,3.0,1.0,0.0,510.0,12.0,3.0,0.0
791011.0,0.0,1.0,1.0,1.0,541.0,13.0,5.0,0.0
791011.0,0.0,2.0,1.0,2.0,462.0,13.0,5.0,2.0
791011.0,0.0,3.0,0.0,3.0,555.0,13.0,5.0,0.0
791011.0,0.0,1.0,1.0,1.0,696.0,14.0,3.0,0.0
791011.0,0.0,2.0,1.0,2.0,528.0,14.0,3.0,2.0
791011.0,0.0,3.0,0.0,3.0,505.0,14.0,3.0,0.0
791011.0,0.0,1.0,1.0,1.0,571.0,15.0,3.0,0.0
791011.0,0.0,2.0,1.0,2.0,449.0,15.0,3.0,2.0
791011.0,0.0,3.0,0.0,3.0,462.0,15.0,3.0,0.0
791011.0,0.0,1.0,1.0,1.0,625.0,16.0,3.0,0.0
791011.0,0.0,2.0,1.0,2.0,427.0,16.0,3.0,0.0
791011.0,0.0,3.0,1.0,3.0,603.0,16.0,3.0,0.0
791021.0,0.0,1.0,1.0,1.0,643.0,1.0,0.0,0.0
791021.0,0.0,2.0,1.0,2.0,398.0,1.0,0.0,0.0
791021.0,0.0,3.0,1.0,3.0,691.0,1.0,0.0,0.0
791021.0,0.0,4.0,1.0,4.0,385.0,1.0,0.0,0.0
791021.0,0.0,5.0,1.0,5.0,508.0,1.0,0.0,1.0
791021.0,1.0,6.0,1.0,0.0,332.0,1.0,0.0,0.0
791021.0,0.0,1.0,1.0,1.0,702.0,2.0,5.0,0.0
791021.0,0.0,2.0,1.0,2.0,488.0,2.0,5.0,0.0
791021.0,0.0,3.0,1.0,3.0,472.0,2.0,5.0,0.0
791021.0,0.0,4.0,1.0,4.0,834.0,2.0,5.0,0.0
791021.0,0.0,5.0,1.0,5.0,363.0,2.0,5.0,2.0
791021.0,0.0,6.0,0.0,6.0,361.0,2.0,5.0,0.0
791021.0,0.0,1.0,1.0,1.0,576.0,3.0,3.0,0.0
791021.0,0.0,2.0,1.0,2.0,571.0,3.0,3.0,0.0
791021.0,0.0,3.0,1.0,3.0,740.0,3.0,3.0,0.0
791021.0,0.0,4.0,1.0,4.0,414.0,3.0,3.0,2.0
791021.0,0.0,5.0,0.0,5.0,409.0,3.0,3.0,0.0
791021.0,0.0,1.0,1.0,1.0,624.0,4.0,3.0,0.0
791021.0,0.0,2.0,1.0,2.0,478.0,4.0,3.0,0.0
791021.0,0.0,3.0,1.0,3.0,412.0,4.0,3.0,0.0
791021.0,0.0,4.0,1.0,4.0,339.0,4.0,3.0,0.0
791021.0,0.0,5.0,1.0,5.0,386.0,4.0,3.0,2.0
791021.0,0.0,6.0,0.0,6.0,456.0,4.0,3.0,0.0
791021.0,0.0,1.0,1.0,1.0,737.0,5.0,3.0,0.0
791021.0,0.0,2.0,1.0,2.0,465.0,5.0,3.0,0.0
791021.0,0.0,3.0,1.0,3.0,347.0,5.0,3.0,0.0
791021.0,0.0,4.0,1.0,4.0,386.0,5.0,3.0,0.0
791021.0,0.0,5.0,1.0,5.0,534.0,5.0,3.0,2.0
791021.0,0.0,6.0,0.0,6.0,339.0,5.0,3.0,0.0
791021.0,0.0,1.0,1.0,1.0,454.0,6.0,3.0,0.0
791021.0,0.0,2.0,1.0,2.0,689.0,6.0,3.0,0.0
791021.0,0.0,3.0,1.0,3.0,471.0,6.0,3.0,0.0
791021.0,0.0,4.0,1.0,4.0,456.0,6.0,3.0,0.0
791021.0,0.0,5.0,1.0,5.0,472.0,6.0,3.0,1.0
791021.0,1.0,6.0,1.0,0.0,604.0,6.0,3.0,0.0
791021.0,0.0,1.0,1.0,1.0,473.0,7.0,5.0,0.0
791021.0,0.0,2.0,1.0,2.0,378.0,7.0,5.0,0.0
791021.0,0.0,3.0,1.0,3.0,398.0,7.0,5.0,0.0
791021.0,0.0,4.0,1.0,4.0,461.0,7.0,5.0,0.0
791021.0,0.0,5.0,1.0,5.0,483.0,7.0,5.0,2.0
791021.0,0.0,6.0,0.0,6.0,459.0,7.0,5.0,0.0
791021.0,0.0,1.0,1.0,1.0,540.0,8.0,3.0,0.0
791021.0,0.0,2.0,1.0,2.0,366.0,8.0,3.0,0.0
791021.0,0.0,3.0,1.0,3.0,346.0,8.0,3.0,0.0
791021.0,0.0,4.0,1.0,4.0,2563.0,8.0,3.0,0.0
791021.0,0.0,5.0,1.0,5.0,501.0,8.0,3.0,2.0
791021.0,0.0,6.0,0.0,6.0,408.0,8.0,3.0,0.0
791021.0,0.0,1.0,1.0,1.0,458.0,9.0,3.0,0.0
791021.0,0.0,2.0,1.0,2.0,429.0,9.0,3.0,0.0
791021.0,0.0,3.0,1.0,3.0,425.0,9.0,3.0,0.0
791021.0,0.0,4.0,1.0,4.0,427.0,9.0,3.0,2.0
791021.0,0.0,5.0,0.0,5.0,398.0,9.0,3.0,0.0
791021.0,0.0,1.0,1.0,1.0,528.0,10.0,3.0,0.0
791021.0,0.0,2.0,1.0,2.0,401.0,10.0,3.0,0.0
791021.0,0.0,3.0,1.0,3.0,465.0,10.0,3.0,0.0
791021.0,0.0,4.0,1.0,4.0,513.0,10.0,3.0,1.0
791021.0,1.0,5.0,1.0,0.0,342.0,10.0,3.0,0.0
791021.0,0.0,1.0,1.0,1.0,591.0,11.0,5.0,0.0
791021.0,0.0,2.0,1.0,2.0,547.0,11.0,5.0,0.0
791021.0,0.0,3.0,1.0,3.0,370.0,11.0,5.0,0.0
791021.0,0.0,4.0,1.0,4.0,568.0,11.0,5.0,2.0
791021.0,0.0,5.0,0.0,5.0,390.0,11.0,5.0,0.0
791021.0,0.0,1.0,1.0,1.0,613.0,12.0,3.0,0.0
791021.0,0.0,2.0,1.0,2.0,862.0,12.0,3.0,0.0
791021.0,0.0,3.0,1.0,3.0,416.0,12.0,3.0,2.0
791021.0,0.0,4.0,0.0,4.0,445.0,12.0,3.0,0.0
791021.0,0.0,1.0,1.0,1.0,654.0,13.0,3.0,0.0
791021.0,0.0,2.0,1.0,2.0,790.0,13.0,3.0,0.0
791021.0,0.0,3.0,1.0,3.0,488.0,13.0,3.0,2.0
791021.0,0.0,4.0,0.0,4.0,513.0,13.0,3.0,0.0
791021.0,0.0,1.0,1.0,1.0,501.0,14.0,3.0,0.0
791021.0,0.0,2.0,1.0,2.0,438.0,14.0,3.0,0.0
791021.0,0.0,3.0,1.0,3.0,519.0,14.0,3.0,2.0
791021.0,0.0,4.0,0.0,4.0,351.0,14.0,3.0,0.0
791021.0,0.0,1.0,1.0,1.0,541.0,15.0,3.0,0.0
791021.0,0.0,2.0,1.0,2.0,346.0,15.0,3.0,0.0
791411.0,0.0,1.0,1.0,1.0,1134.0,1.0,0.0,0.0
791411.0,0.0,2.0,1.0,2.0,965.0,1.0,0.0,0.0
791411.0,0.0,3.0,1.0,3.0,1217.0,1.0,0.0,0.0
791411.0,0.0,4.0,1.0,4.0,943.0,1.0,0.0,0.0
791411.0,0.0,5.0,1.0,5.0,713.0,1.0,0.0,0.0
791411.0,0.0,6.0,1.0,6.0,794.0,1.0,0.0,1.0
791411.0,1.0,7.0,1.0,0.0,2291.0,1.0,0.0,0.0
791411.0,0.0,1.0,1.0,1.0,908.0,2.0,5.0,0.0
791411.0,0.0,2.0,1.0,2.0,1029.0,2.0,5.0,0.0
791411.0,0.0,3.0,1.0,3.0,1127.0,2.0,5.0,0.0
791411.0,0.0,4.0,1.0,4.0,857.0,2.0,5.0,0.0
791411.0,0.0,5.0,1.0,5.0,707.0,2.0,5.0,0.0
791411.0,0.0,6.0,1.0,6.0,714.0,2.0,5.0,2.0
791411.0,0.0,7.0,0.0,7.0,2016.0,2.0,5.0,0.0
791411.0,0.0,1.0,1.0,1.0,944.0,3.0,3.0,0.0
791411.0,0.0,2.0,1.0,2.0,899.0,3.0,3.0,0.0
791411.0,0.0,3.0,1.0,3.0,767.0,3.0,3.0,0.0
791411.0,0.0,4.0,1.0,4.0,765.0,3.0,3.0,0.0
791411.0,0.0,5.0,1.0,5.0,1012.0,3.0,3.0,2.0
791411.0,0.0,6.0,0.0,6.0,1276.0,3.0,3.0,0.0
791411.0,0.0,1.0,1.0,1.0,834.0,4.0,3.0,0.0
791411.0,0.0,2.0,1.0,2.0,1094.0,4.0,3.0,0.0
791411.0,0.0,3.0,1.0,3.0,996.0,4.0,3.0,0.0
791411.0,0.0,4.0,1.0,4.0,569.0,4.0,3.0,0.0
791411.0,0.0,5.0,1.0,5.0,540.0,4.0,3.0,1.0
791411.0,1.0,6.0,1.0,0.0,759.0,4.0,3.0,0.0
791411.0,0.0,1.0,1.0,1.0,469.0,5.0,5.0,0.0
791411.0,0.0,2.0,1.0,2.0,658.0,5.0,5.0,0.0
791411.0,0.0,3.0,1.0,3.0,885.0,5.0,5.0,0.0
791411.0,0.0,4.0,1.0,4.0,975.0,5.0,5.0,0.0
791411.0,0.0,5.0,1.0,5.0,595.0,5.0,5.0,2.0
791411.0,0.0,6.0,0.0,6.0,812.0,5.0,5.0,0.0
791411.0,0.0,1.0,1.0,1.0,766.0,6.0,3.0,0.0
791411.0,0.0,2.0,1.0,2.0,833.0,6.0,3.0,0.0
791411.0,0.0,3.0,1.0,3.0,483.0,6.0,3.0,0.0
791411.0,0.0,4.0,1.0,4.0,745.0,6.0,3.0,0.0
791411.0,0.0,5.0,1.0,5.0,877.0,6.0,3.0,1.0
791411.0,1.0,6.0,1.0,0.0,816.0,6.0,3.0,0.0
791411.0,0.0,1.0,1.0,1.0,690.0,7.0,5.0,0.0
791411.0,0.0,2.0,1.0,2.0,684.0,7.0,5.0,0.0
791411.0,0.0,3.0,1.0,3.0,577.0,7.0,5.0,0.0
791411.0,0.0,4.0,1.0,4.0,881.0,7.0,5.0,0.0
791411.0,0.0,5.0,1.0,5.0,730.0,7.0,5.0,2.0
791411.0,0.0,6.0,0.0,6.0,1081.0,7.0,5.0,0.0
791411.0,0.0,1.0,1.0,1.0,817.0,8.0,3.0,0.0
791411.0,0.0,2.0,1.0,2.0,749.0,8.0,3.0,0.0
791411.0,0.0,3.0,1.0,3.0,624.0,8.0,3.0,0.0
791411.0,0.0,4.0,1.0,4.0,718.0,8.0,3.0,2.0
791411.0,0.0,5.0,0.0,5.0,648.0,8.0,3.0,0.0
791411.0,0.0,1.0,1.0,1.0,1142.0,9.0,3.0,0.0
791411.0,0.0,2.0,1.0,2.0,496.0,9.0,3.0,0.0
791411.0,0.0,3.0,1.0,3.0,993.0,9.0,3.0,0.0
791411.0,0.0,4.0,1.0,4.0,663.0,9.0,3.0,1.0
791411.0,1.0,5.0,1.0,0.0,639.0,9.0,3.0,0.0
791411.0,0.0,1.0,1.0,1.0,736.0,10.0,5.0,0.0
791411.0,0.0,2.0,1.0,2.0,968.0,10.0,5.0,0.0
791411.0,0.0,3.0,1.0,3.0,557.0,10.0,5.0,0.0
791411.0,0.0,4.0,1.0,4.0,1027.0,10.0,5.0,2.0
791411.0,0.0,5.0,0.0,5.0,822.0,10.0,5.0,0.0
791411.0,0.0,1.0,1.0,1.0,1026.0,11.0,3.0,0.0
791411.0,0.0,2.0,1.0,2.0,543.0,11.0,3.0,0.0
791411.0,0.0,3.0,1.0,3.0,911.0,11.0,3.0,0.0
791411.0,0.0,4.0,1.0,4.0,532.0,11.0,3.0,2.0
791411.0,0.0,5.0,0.0,5.0,1331.0,11.0,3.0,0.0
791411.0,0.0,1.0,1.0,1.0,643.0,12.0,3.0,0.0
791411.0,0.0,2.0,1.0,2.0,752.0,12.0,3.0,0.0
791411.0,0.0,3.0,1.0,3.0,695.0,12.0,3.0,0.0
791411.0,0.0,4.0,1.0,4.0,648.0,12.0,3.0,1.0
791411.0,1.0,5.0,1.0,0.0,697.0,12.0,3.0,0.0
791411.0,0.0,1.0,1.0,1.0,900.0,13.0,5.0,0.0
791411.0,0.0,2.0,1.0,2.0,517.0,13.0,5.0,0.0
791411.0,0.0,3.0,1.0,3.0,526.0,13.0,5.0,0.0
791411.0,0.0,4.0,1.0,4.0,1425.0,13.0,5.0,2.0
791411.0,0.0,5.0,0.0,5.0,718.0,13.0,5.0,0.0
791411.0,0.0,1.0,1.0,1.0,742.0,14.0,3.0,0.0
791411.0,0.0,2.0,1.0,2.0,2151.0,14.0,3.0,0.0
791411.0,0.0,3.0,1.0,3.0,986.0,14.0,3.0,0.0
791421.0,0.0,1.0,1.0,1.0,1075.0,1.0,0.0,0.0
791421.0,0.0,2.0,1.0,2.0,916.0,1.0,0.0,0.0
791421.0,0.0,3.0,1.0,3.0,930.0,1.0,0.0,0.0
791421.0,0.0,4.0,1.0,4.0,633.0,1.0,0.0,0.0
791421.0,0.0,5.0,1.0,5.0,649.0,1.0,0.0,0.0
791421.0,0.0,6.0,1.0,6.0,802.0,1.0,0.0,2.0
791421.0,0.0,7.0,0.0,7.0,659.0,1.0,0.0,0.0
791421.0,0.0,1.0,1.0,1.0,1653.0,2.0,3.0,0.0
791421.0,0.0,2.0,1.0,2.0,807.0,2.0,3.0,0.0
791421.0,0.0,3.0,1.0,3.0,475.0,2.0,3.0,0.0
791421.0,0.0,4.0,1.0,4.0,801.0,2.0,3.0,0.0
791421.0,0.0,5.0,1.0,5.0,738.0,2.0,3.0,0.0
791421.0,0.0,6.0,1.0,6.0,584.0,2.0,3.0,1.0
791421.0,1.0,7.0,1.0,0.0,618.0,2.0,3.0,0.0
791421.0,0.0,1.0,1.0,1.0,981.0,3.0,5.0,0.0
791421.0,0.0,2.0,1.0,2.0,803.0,3.0,5.0,0.0
791421.0,0.0,3.0,1.0,3.0,850.0,3.0,5.0,0.0
791421.0,0.0,4.0,1.0,4.0,821.0,3.0,5.0,0.0
791421.0,0.0,5.0,1.0,5.0,1191.0,3.0,5.0,2.0
791421.0,0.0,6.0,0.0,6.0,2306.0,3.0,5.0,0.0
791421.0,0.0,1.0,1.0,1.0,668.0,4.0,3.0,0.0
791421.0,0.0,2.0,1.0,2.0,763.0,4.0,3.0,0.0
791421.0,0.0,3.0,1.0,3.0,723.0,4.0,3.0,0.0
791421.0,0.0,4.0,1.0,4.0,556.0,4.0,3.0,0.0
791421.0,0.0,5.0,1.0,5.0,533.0,4.0,3.0,2.0
791421.0,0.0,6.0,0.0,6.0,591.0,4.0,3.0,0.0
791421.0,0.0,1.0,1.0,1.0,1367.0,5.0,3.0,0.0
791421.0,0.0,2.0,1.0,2.0,708.0,5.0,3.0,0.0
791421.0,0.0,3.0,1.0,3.0,815.0,5.0,3.0,0.0
791421.0,0.0,4.0,1.0,4.0,730.0,5.0,3.0,0.0
791421.0,0.0,5.0,1.0,5.0,2125.0,5.0,3.0,2.0
791421.0,0.0,6.0,0.0,6.0,456.0,5.0,3.0,0.0
791421.0,0.0,1.0,1.0,1.0,1258.0,6.0,3.0,0.0
791421.0,0.0,2.0,1.0,2.0,882.0,6.0,3.0,0.0
791421.0,0.0,3.0,1.0,3.0,743.0,6.0,3.0,0.0
791421.0,0.0,4.0,1.0,4.0,726.0,6.0,3.0,0.0
791421.0,0.0,5.0,1.0,5.0,359.0,6.0,3.0,1.0
791421.0,1.0,6.0,1.0,0.0,2579.0,6.0,3.0,0.0
791421.0,0.0,1.0,1.0,1.0,521.0,7.0,5.0,0.0
791421.0,0.0,2.0,1.0,2.0,377.0,7.0,5.0,0.0
791421.0,0.0,3.0,1.0,3.0,479.0,7.0,5.0,1.0
791421.0,1.0,4.0,1.0,0.0,779.0,7.0,5.0,0.0
791421.0,0.0,1.0,1.0,1.0,761.0,8.0,5.0,0.0
791421.0,0.0,2.0,1.0,2.0,473.0,8.0,5.0,0.0
791421.0,0.0,3.0,1.0,3.0,488.0,8.0,5.0,0.0
791421.0,0.0,4.0,1.0,4.0,385.0,8.0,5.0,2.0
791421.0,0.0,5.0,0.0,5.0,442.0,8.0,5.0,0.0
791421.0,0.0,1.0,1.0,1.0,527.0,9.0,3.0,0.0
791421.0,0.0,2.0,1.0,2.0,472.0,9.0,3.0,0.0
791421.0,0.0,3.0,1.0,3.0,430.0,9.0,3.0,0.0
791421.0,0.0,4.0,1.0,4.0,641.0,9.0,3.0,2.0
791421.0,0.0,5.0,0.0,5.0,729.0,9.0,3.0,0.0
791421.0,0.0,1.0,1.0,1.0,387.0,10.0,3.0,0.0
791421.0,0.0,2.0,1.0,2.0,541.0,10.0,3.0,0.0
791421.0,0.0,3.0,1.0,3.0,538.0,10.0,3.0,0.0
791421.0,0.0,4.0,1.0,4.0,522.0,10.0,3.0,1.0
791421.0,1.0,5.0,1.0,0.0,2439.0,10.0,3.0,0.0
791421.0,0.0,1.0,1.0,1.0,619.0,11.0,5.0,0.0
791421.0,0.0,2.0,1.0,2.0,831.0,11.0,5.0,0.0
791421.0,0.0,3.0,1.0,3.0,674.0,11.0,5.0,2.0
791421.0,0.0,4.0,0.0,4.0,574.0,11.0,5.0,0.0
791421.0,0.0,1.0,1.0,1.0,560.0,12.0,3.0,0.0
791421.0,0.0,2.0,1.0,2.0,510.0,12.0,3.0,0.0
791421.0,0.0,3.0,1.0,3.0,455.0,12.0,3.0,2.0
791421.0,0.0,4.0,0.0,4.0,1389.0,12.0,3.0,0.0
791421.0,0.0,1.0,1.0,1.0,970.0,13.0,3.0,0.0
791421.0,0.0,2.0,1.0,2.0,549.0,13.0,3.0,2.0
791421.0,0.0,3.0,0.0,3.0,588.0,13.0,3.0,0.0
791421.0,0.0,1.0,1.0,1.0,944.0,14.0,3.0,0.0
791421.0,0.0,2.0,1.0,2.0,701.0,14.0,3.0,0.0
791421.0,0.0,3.0,1.0,3.0,2467.0,14.0,3.0,0.0
791811.0,0.0,1.0,1.0,1.0,758.0,1.0,0.0,0.0
791811.0,0.0,2.0,1.0,2.0,564.0,1.0,0.0,0.0
791811.0,0.0,3.0,1.0,3.0,912.0,1.0,0.0,0.0
791811.0,0.0,4.0,1.0,4.0,714.0,1.0,0.0,0.0
791811.0,0.0,5.0,1.0,5.0,2273.0,1.0,0.0,0.0
791811.0,0.0,6.0,1.0,6.0,620.0,1.0,0.0,2.0
791811.0,0.0,7.0,0.0,7.0,571.0,1.0,0.0,0.0
791811.0,0.0,1.0,1.0,1.0,625.0,2.0,3.0,0.0
791811.0,0.0,2.0,1.0,2.0,388.0,2.0,3.0,0.0
791811.0,0.0,3.0,1.0,3.0,444.0,2.0,3.0,0.0
791811.0,0.0,4.0,1.0,4.0,425.0,2.0,3.0,0.0
791811.0,0.0,5.0,1.0,5.0,467.0,2.0,3.0,1.0
791811.0,1.0,6.0,1.0,0.0,556.0,2.0,3.0,0.0
791811.0,0.0,1.0,1.0,1.0,534.0,3.0,5.0,0.0
791811.0,0.0,2.0,1.0,2.0,487.0,3.0,5.0,0.0
791811.0,0.0,3.0,1.0,3.0,472.0,3.0,5.0,0.0
791811.0,0.0,4.0,1.0,4.0,427.0,3.0,5.0,0.0
791811.0,0.0,5.0,1.0,5.0,492.0,3.0,5.0,2.0
791811.0,0.0,6.0,0.0,6.0,641.0,3.0,5.0,0.0
791811.0,0.0,1.0,1.0,1.0,627.0,4.0,3.0,0.0
791811.0,0.0,2.0,1.0,2.0,396.0,4.0,3.0,0.0
791811.0,0.0,3.0,1.0,3.0,476.0,4.0,3.0,0.0
791811.0,0.0,4.0,1.0,4.0,500.0,4.0,3.0,0.0
791811.0,0.0,5.0,1.0,5.0,518.0,4.0,3.0,2.0
791811.0,0.0,6.0,0.0,6.0,1092.0,4.0,3.0,0.0
791811.0,0.0,1.0,1.0,1.0,576.0,5.0,3.0,0.0
791811.0,0.0,2.0,1.0,2.0,558.0,5.0,3.0,0.0
791811.0,0.0,3.0,1.0,3.0,385.0,5.0,3.0,0.0
791811.0,0.0,4.0,1.0,4.0,760.0,5.0,3.0,0.0
791811.0,0.0,5.0,1.0,5.0,986.0,5.0,3.0,2.0
791811.0,0.0,6.0,0.0,6.0,538.0,5.0,3.0,0.0
791811.0,0.0,1.0,1.0,1.0,623.0,6.0,3.0,0.0
791811.0,0.0,2.0,1.0,2.0,453.0,6.0,3.0,0.0
791811.0,0.0,3.0,1.0,3.0,474.0,6.0,3.0,0.0
791811.0,0.0,4.0,1.0,4.0,461.0,6.0,3.0,0.0
791811.0,0.0,5.0,1.0,5.0,950.0,6.0,3.0,2.0
791811.0,0.0,6.0,0.0,6.0,587.0,6.0,3.0,0.0
791811.0,0.0,1.0,1.0,1.0,740.0,7.0,3.0,0.0
791811.0,0.0,2.0,1.0,2.0,528.0,7.0,3.0,0.0
791811.0,0.0,3.0,1.0,3.0,477.0,7.0,3.0,0.0
791811.0,0.0,4.0,1.0,4.0,659.0,7.0,3.0,2.0
791811.0,0.0,5.0,0.0,5.0,791.0,7.0,3.0,0.0
791811.0,0.0,1.0,1.0,1.0,517.0,8.0,3.0,0.0
791811.0,0.0,2.0,1.0,2.0,747.0,8.0,3.0,0.0
791811.0,0.0,3.0,1.0,3.0,417.0,8.0,3.0,0.0
791811.0,0.0,4.0,1.0,4.0,811.0,8.0,3.0,2.0
791811.0,0.0,5.0,0.0,5.0,730.0,8.0,3.0,0.0
791811.0,0.0,1.0,1.0,1.0,928.0,9.0,3.0,0.0
791811.0,0.0,2.0,1.0,2.0,486.0,9.0,3.0,0.0
791811.0,0.0,3.0,1.0,3.0,452.0,9.0,3.0,0.0
791811.0,0.0,4.0,1.0,4.0,443.0,9.0,3.0,2.0
791811.0,0.0,5.0,0.0,5.0,663.0,9.0,3.0,0.0
791811.0,0.0,1.0,1.0,1.0,638.0,10.0,3.0,0.0
791811.0,0.0,2.0,1.0,2.0,412.0,10.0,3.0,0.0
791811.0,0.0,3.0,1.0,3.0,860.0,10.0,3.0,0.0
791811.0,0.0,4.0,1.0,4.0,802.0,10.0,3.0,1.0
791811.0,1.0,5.0,1.0,0.0,459.0,10.0,3.0,0.0
791811.0,0.0,1.0,1.0,1.0,917.0,11.0,5.0,0.0
791811.0,0.0,2.0,1.0,2.0,1166.0,11.0,5.0,0.0
791811.0,0.0,3.0,1.0,3.0,778.0,11.0,5.0,0.0
791811.0,0.0,4.0,1.0,4.0,531.0,11.0,5.0,2.0
791811.0,0.0,5.0,0.0,5.0,862.0,11.0,5.0,0.0
791811.0,0.0,1.0,1.0,1.0,547.0,12.0,3.0,0.0
791811.0,0.0,2.0,1.0,2.0,370.0,12.0,3.0,0.0
791811.0,0.0,3.0,1.0,3.0,459.0,12.0,3.0,0.0
791811.0,0.0,4.0,1.0,4.0,829.0,12.0,3.0,2.0
791811.0,0.0,5.0,0.0,5.0,857.0,12.0,3.0,0.0
791811.0,0.0,1.0,1.0,1.0,664.0,13.0,3.0,0.0
791811.0,0.0,2.0,1.0,2.0,651.0,13.0,3.0,0.0
791811.0,0.0,3.0,1.0,3.0,854.0,13.0,3.0,2.0
791811.0,0.0,4.0,0.0,4.0,708.0,13.0,3.0,0.0
791811.0,0.0,1.0,1.0,1.0,856.0,14.0,3.0,0.0
791811.0,0.0,2.0,1.0,2.0,755.0,14.0,3.0,0.0
791811.0,0.0,3.0,1.0,3.0,742.0,14.0,3.0,0.0
791811.0,0.0,4.0,1.0,4.0,722.0,14.0,3.0,0.0
791821.0,0.0,1.0,1.0,1.0,1025.0,1.0,0.0,0.0
791821.0,0.0,2.0,1.0,2.0,628.0,1.0,0.0,0.0
791821.0,0.0,3.0,1.0,3.0,701.0,1.0,0.0,0.0
791821.0,0.0,4.0,1.0,4.0,604.0,1.0,0.0,0.0
791821.0,0.0,5.0,1.0,5.0,763.0,1.0,0.0,0.0
791821.0,0.0,6.0,1.0,6.0,662.0,1.0,0.0,2.0
791821.0,0.0,7.0,0.0,7.0,557.0,1.0,0.0,0.0
791821.0,0.0,1.0,1.0,1.0,1869.0,2.0,3.0,0.0
791821.0,0.0,2.0,1.0,2.0,478.0,2.0,3.0,0.0
791821.0,0.0,3.0,1.0,3.0,427.0,2.0,3.0,0.0
791821.0,0.0,4.0,1.0,4.0,466.0,2.0,3.0,0.0
791821.0,0.0,5.0,1.0,5.0,517.0,2.0,3.0,0.0
791821.0,0.0,6.0,1.0,6.0,557.0,2.0,3.0,2.0
791821.0,0.0,7.0,0.0,7.0,1065.0,2.0,3.0,0.0
791821.0,0.0,1.0,1.0,1.0,604.0,3.0,3.0,0.0
791821.0,0.0,2.0,1.0,2.0,447.0,3.0,3.0,0.0
791821.0,0.0,3.0,1.0,3.0,587.0,3.0,3.0,0.0
791821.0,0.0,4.0,1.0,4.0,522.0,3.0,3.0,0.0
791821.0,0.0,5.0,1.0,5.0,561.0,3.0,3.0,2.0
791821.0,0.0,6.0,0.0,6.0,431.0,3.0,3.0,0.0
791821.0,0.0,1.0,1.0,1.0,579.0,4.0,3.0,0.0
791821.0,0.0,2.0,1.0,2.0,434.0,4.0,3.0,0.0
791821.0,0.0,3.0,1.0,3.0,466.0,4.0,3.0,0.0
791821.0,0.0,4.0,1.0,4.0,484.0,4.0,3.0,0.0
791821.0,0.0,5.0,1.0,5.0,551.0,4.0,3.0,2.0
791821.0,0.0,6.0,0.0,6.0,588.0,4.0,3.0,0.0
791821.0,0.0,1.0,1.0,1.0,703.0,5.0,3.0,0.0
791821.0,0.0,2.0,1.0,2.0,454.0,5.0,3.0,0.0
791821.0,0.0,3.0,1.0,3.0,409.0,5.0,3.0,0.0
791821.0,0.0,4.0,1.0,4.0,450.0,5.0,3.0,0.0
791821.0,0.0,5.0,1.0,5.0,584.0,5.0,3.0,1.0
791821.0,1.0,6.0,1.0,0.0,1188.0,5.0,3.0,0.0
791821.0,0.0,1.0,1.0,1.0,601.0,6.0,5.0,0.0
791821.0,0.0,2.0,1.0,2.0,429.0,6.0,5.0,0.0
791821.0,0.0,3.0,1.0,3.0,476.0,6.0,5.0,0.0
791821.0,0.0,4.0,1.0,4.0,765.0,6.0,5.0,0.0
791821.0,0.0,5.0,1.0,5.0,503.0,6.0,5.0,2.0
791821.0,0.0,6.0,0.0,6.0,615.0,6.0,5.0,0.0
791821.0,0.0,1.0,1.0,1.0,844.0,7.0,3.0,0.0
791821.0,0.0,2.0,1.0,2.0,525.0,7.0,3.0,0.0
791821.0,0.0,3.0,1.0,3.0,492.0,7.0,3.0,0.0
791821.0,0.0,4.0,1.0,4.0,462.0,7.0,3.0,0.0
791821.0,0.0,5.0,1.0,5.0,944.0,7.0,3.0,1.0
791821.0,1.0,6.0,1.0,0.0,503.0,7.0,3.0,0.0
791821.0,0.0,1.0,1.0,1.0,414.0,8.0,5.0,0.0
791821.0,0.0,2.0,1.0,2.0,591.0,8.0,5.0,0.0
791821.0,0.0,3.0,1.0,3.0,770.0,8.0,5.0,0.0
791821.0,0.0,4.0,1.0,4.0,447.0,8.0,5.0,2.0
791821.0,0.0,5.0,0.0,5.0,843.0,8.0,5.0,0.0
791821.0,0.0,1.0,1.0,1.0,1063.0,9.0,3.0,0.0
791821.0,0.0,2.0,1.0,2.0,538.0,9.0,3.0,0.0
791821.0,0.0,3.0,1.0,3.0,502.0,9.0,3.0,0.0
791821.0,0.0,4.0,1.0,4.0,506.0,9.0,3.0,2.0
791821.0,0.0,5.0,0.0,5.0,1241.0,9.0,3.0,0.0
791821.0,0.0,1.0,1.0,1.0,508.0,10.0,3.0,0.0
791821.0,0.0,2.0,1.0,2.0,326.0,10.0,3.0,0.0
791821.0,0.0,3.0,1.0,3.0,491.0,10.0,3.0,0.0
791821.0,0.0,4.0,1.0,4.0,592.0,10.0,3.0,2.0
791821.0,0.0,5.0,0.0,5.0,533.0,10.0,3.0,0.0
791821.0,0.0,1.0,1.0,1.0,725.0,11.0,3.0,0.0
791821.0,0.0,2.0,1.0,2.0,570.0,11.0,3.0,0.0
791821.0,0.0,3.0,1.0,3.0,505.0,11.0,3.0,0.0
791821.0,0.0,4.0,1.0,4.0,492.0,11.0,3.0,2.0
791821.0,0.0,5.0,0.0,5.0,405.0,11.0,3.0,0.0
791821.0,0.0,1.0,1.0,1.0,619.0,12.0,3.0,0.0
791821.0,0.0,2.0,1.0,2.0,502.0,12.0,3.0,0.0
791821.0,0.0,3.0,1.0,3.0,490.0,12.0,3.0,0.0
791821.0,0.0,4.0,1.0,4.0,502.0,12.0,3.0,2.0
791821.0,0.0,5.0,0.0,5.0,2155.0,12.0,3.0,0.0
791821.0,0.0,1.0,1.0,1.0,573.0,13.0,3.0,0.0
791821.0,0.0,2.0,1.0,2.0,409.0,13.0,3.0,0.0
791821.0,0.0,3.0,1.0,3.0,411.0,13.0,3.0,2.0
791821.0,0.0,4.0,0.0,4.0,423.0,13.0,3.0,0.0
791821.0,0.0,1.0,1.0,1.0,518.0,14.0,3.0,0.0
791821.0,0.0,2.0,1.0,2.0,385.0,14.0,3.0,0.0
791821.0,0.0,3.0,1.0,3.0,360.0,14.0,3.0,0.0
791911.0,0.0,1.0,1.0,1.0,1450.0,1.0,0.0,0.0
791911.0,0.0,2.0,1.0,2.0,873.0,1.0,0.0,0.0
791911.0,0.0,3.0,1.0,3.0,252.0,1.0,0.0,0.0
791911.0,0.0,4.0,1.0,4.0,401.0,1.0,0.0,0.0
791911.0,0.0,5.0,1.0,5.0,311.0,1.0,0.0,0.0
791911.0,0.0,6.0,1.0,6.0,603.0,1.0,0.0,1.0
791911.0,1.0,7.0,1.0,0.0,1048.0,1.0,0.0,0.0
791911.0,0.0,1.0,1.0,1.0,1075.0,2.0,5.0,0.0
791911.0,0.0,2.0,1.0,2.0,513.0,2.0,5.0,0.0
791911.0,0.0,3.0,1.0,3.0,299.0,2.0,5.0,0.0
791911.0,0.0,4.0,1.0,4.0,375.0,2.0,5.0,0.0
791911.0,0.0,5.0,1.0,5.0,512.0,2.0,5.0,0.0
791911.0,0.0,6.0,1.0,6.0,112.0,2.0,5.0,2.0
791911.0,0.0,7.0,0.0,7.0,335.0,2.0,5.0,0.0
791911.0,0.0,1.0,1.0,1.0,526.0,3.0,3.0,0.0
791911.0,0.0,2.0,1.0,2.0,357.0,3.0,3.0,0.0
791911.0,0.0,3.0,1.0,3.0,612.0,3.0,3.0,1.0
791911.0,1.0,4.0,1.0,0.0,572.0,3.0,3.0,0.0
791911.0,0.0,1.0,1.0,1.0,535.0,4.0,5.0,0.0
791911.0,0.0,2.0,1.0,2.0,298.0,4.0,5.0,0.0
791911.0,0.0,3.0,1.0,3.0,233.0,4.0,5.0,0.0
791911.0,0.0,4.0,1.0,4.0,956.0,4.0,5.0,0.0
791911.0,0.0,5.0,1.0,5.0,224.0,4.0,5.0,1.0
791911.0,1.0,6.0,1.0,0.0,265.0,4.0,5.0,0.0
791911.0,0.0,1.0,1.0,1.0,1430.0,5.0,5.0,0.0
791911.0,0.0,2.0,1.0,2.0,1035.0,5.0,5.0,0.0
791911.0,0.0,3.0,1.0,3.0,1210.0,5.0,5.0,0.0
791911.0,0.0,4.0,1.0,4.0,230.0,5.0,5.0,0.0
791911.0,0.0,5.0,1.0,5.0,217.0,5.0,5.0,2.0
791911.0,0.0,6.0,0.0,6.0,300.0,5.0,5.0,0.0
791911.0,0.0,1.0,1.0,1.0,1642.0,6.0,3.0,0.0
791911.0,0.0,2.0,1.0,2.0,593.0,6.0,3.0,0.0
791911.0,0.0,3.0,1.0,3.0,1678.0,6.0,3.0,0.0
791911.0,0.0,4.0,1.0,4.0,267.0,6.0,3.0,0.0
791911.0,0.0,5.0,1.0,5.0,638.0,6.0,3.0,1.0
791911.0,1.0,6.0,1.0,0.0,238.0,6.0,3.0,0.0
791911.0,0.0,1.0,1.0,1.0,410.0,7.0,5.0,0.0
791911.0,0.0,2.0,1.0,2.0,520.0,7.0,5.0,0.0
791911.0,0.0,3.0,1.0,3.0,324.0,7.0,5.0,0.0
791911.0,0.0,4.0,1.0,4.0,312.0,7.0,5.0,1.0
791911.0,1.0,5.0,1.0,0.0,464.0,7.0,5.0,0.0
791911.0,0.0,1.0,1.0,1.0,400.0,8.0,5.0,0.0
791911.0,0.0,2.0,1.0,2.0,608.0,8.0,5.0,0.0
791911.0,0.0,3.0,1.0,3.0,419.0,8.0,5.0,0.0
791911.0,0.0,4.0,1.0,4.0,246.0,8.0,5.0,2.0
791911.0,0.0,5.0,0.0,5.0,551.0,8.0,5.0,0.0
791911.0,0.0,1.0,1.0,1.0,881.0,9.0,3.0,0.0
791911.0,0.0,2.0,1.0,2.0,808.0,9.0,3.0,0.0
791911.0,0.0,3.0,1.0,3.0,683.0,9.0,3.0,0.0
791911.0,0.0,4.0,1.0,4.0,1159.0,9.0,3.0,2.0
791911.0,0.0,5.0,0.0,5.0,289.0,9.0,3.0,0.0
791911.0,0.0,1.0,1.0,1.0,934.0,10.0,3.0,0.0
791911.0,0.0,2.0,1.0,2.0,126.0,10.0,3.0,0.0
791911.0,0.0,3.0,1.0,3.0,233.0,10.0,3.0,0.0
791911.0,0.0,4.0,1.0,4.0,274.0,10.0,3.0,1.0
791911.0,1.0,5.0,1.0,0.0,314.0,10.0,3.0,0.0
791911.0,0.0,1.0,1.0,1.0,625.0,11.0,5.0,0.0
791911.0,0.0,2.0,1.0,2.0,323.0,11.0,5.0,0.0
791911.0,0.0,3.0,1.0,3.0,386.0,11.0,5.0,0.0
791911.0,0.0,4.0,1.0,4.0,333.0,11.0,5.0,2.0
791911.0,0.0,5.0,0.0,5.0,249.0,11.0,5.0,0.0
791911.0,0.0,1.0,1.0,1.0,991.0,12.0,3.0,0.0
791911.0,0.0,2.0,1.0,2.0,321.0,12.0,3.0,0.0
791911.0,0.0,3.0,1.0,3.0,283.0,12.0,3.0,0.0
791911.0,0.0,4.0,1.0,4.0,243.0,12.0,3.0,1.0
791911.0,1.0,5.0,1.0,0.0,480.0,12.0,3.0,0.0
791911.0,0.0,1.0,1.0,1.0,431.0,13.0,5.0,0.0
791911.0,0.0,2.0,1.0,2.0,333.0,13.0,5.0,0.0
791911.0,0.0,3.0,1.0,3.0,316.0,13.0,5.0,1.0
791911.0,1.0,4.0,1.0,0.0,257.0,13.0,5.0,0.0
791911.0,0.0,1.0,1.0,1.0,1023.0,14.0,5.0,0.0
791911.0,0.0,2.0,1.0,2.0,503.0,14.0,5.0,0.0
791911.0,0.0,3.0,1.0,3.0,547.0,14.0,5.0,0.0
791911.0,0.0,4.0,1.0,4.0,400.0,14.0,5.0,0.0
791921.0,0.0,1.0,1.0,1.0,636.0,1.0,0.0,0.0
791921.0,0.0,2.0,1.0,2.0,509.0,1.0,0.0,0.0
791921.0,0.0,3.0,1.0,3.0,486.0,1.0,0.0,0.0
791921.0,0.0,4.0,1.0,4.0,718.0,1.0,0.0,0.0
791921.0,0.0,5.0,1.0,5.0,1046.0,1.0,0.0,0.0
791921.0,0.0,6.0,1.0,6.0,587.0,1.0,0.0,1.0
791921.0,1.0,7.0,1.0,0.0,652.0,1.0,0.0,0.0
791921.0,0.0,1.0,1.0,1.0,551.0,2.0,5.0,0.0
791921.0,0.0,2.0,1.0,2.0,533.0,2.0,5.0,0.0
791921.0,0.0,3.0,1.0,3.0,714.0,2.0,5.0,0.0
791921.0,0.0,4.0,1.0,4.0,1459.0,2.0,5.0,0.0
791921.0,0.0,5.0,1.0,5.0,1011.0,2.0,5.0,0.0
791921.0,0.0,6.0,1.0,6.0,1588.0,2.0,5.0,1.0
791921.0,1.0,7.0,1.0,0.0,1289.0,2.0,5.0,0.0
791921.0,0.0,1.0,1.0,1.0,1120.0,3.0,5.0,0.0
791921.0,0.0,2.0,1.0,2.0,1267.0,3.0,5.0,0.0
791921.0,0.0,3.0,1.0,3.0,809.0,3.0,5.0,0.0
791921.0,0.0,4.0,1.0,4.0,1442.0,3.0,5.0,0.0
791921.0,0.0,5.0,1.0,5.0,1300.0,3.0,5.0,0.0
791921.0,0.0,6.0,1.0,6.0,1104.0,3.0,5.0,2.0
791921.0,0.0,7.0,0.0,7.0,866.0,3.0,5.0,0.0
791921.0,0.0,1.0,1.0,1.0,921.0,4.0,3.0,0.0
791921.0,0.0,2.0,1.0,2.0,976.0,4.0,3.0,0.0
791921.0,0.0,3.0,1.0,3.0,971.0,4.0,3.0,0.0
791921.0,0.0,4.0,1.0,4.0,1093.0,4.0,3.0,0.0
791921.0,0.0,5.0,1.0,5.0,1365.0,4.0,3.0,0.0
791921.0,0.0,6.0,1.0,6.0,1492.0,4.0,3.0,2.0
791921.0,0.0,7.0,0.0,7.0,1465.0,4.0,3.0,0.0
791921.0,0.0,1.0,1.0,1.0,731.0,5.0,3.0,0.0
791921.0,0.0,2.0,1.0,2.0,1187.0,5.0,3.0,0.0
791921.0,0.0,3.0,1.0,3.0,1281.0,5.0,3.0,0.0
791921.0,0.0,4.0,1.0,4.0,1039.0,5.0,3.0,0.0
791921.0,0.0,5.0,1.0,5.0,920.0,5.0,3.0,0.0
791921.0,0.0,6.0,1.0,6.0,1359.0,5.0,3.0,2.0
791921.0,0.0,7.0,0.0,7.0,1267.0,5.0,3.0,0.0
791921.0,0.0,1.0,1.0,1.0,807.0,6.0,3.0,0.0
791921.0,0.0,2.0,1.0,2.0,904.0,6.0,3.0,0.0
791921.0,0.0,3.0,1.0,3.0,726.0,6.0,3.0,0.0
791921.0,0.0,4.0,1.0,4.0,1089.0,6.0,3.0,0.0
791921.0,0.0,5.0,1.0,5.0,1062.0,6.0,3.0,0.0
791921.0,0.0,6.0,1.0,6.0,682.0,6.0,3.0,2.0
791921.0,0.0,7.0,0.0,7.0,1210.0,6.0,3.0,0.0
791921.0,0.0,1.0,1.0,1.0,739.0,7.0,3.0,0.0
791921.0,0.0,2.0,1.0,2.0,1562.0,7.0,3.0,0.0
791921.0,0.0,3.0,1.0,3.0,1158.0,7.0,3.0,0.0
791921.0,0.0,4.0,1.0,4.0,1165.0,7.0,3.0,0.0
791921.0,0.0,5.0,1.0,5.0,657.0,7.0,3.0,0.0
791921.0,0.0,6.0,1.0,6.0,1242.0,7.0,3.0,1.0
791921.0,1.0,7.0,1.0,0.0,1444.0,7.0,3.0,0.0
791921.0,0.0,1.0,1.0,1.0,532.0,8.0,5.0,0.0
791921.0,0.0,2.0,1.0,2.0,1017.0,8.0,5.0,0.0
791921.0,0.0,3.0,1.0,3.0,1124.0,8.0,5.0,0.0
791921.0,0.0,4.0,1.0,4.0,1252.0,8.0,5.0,0.0
791921.0,0.0,5.0,1.0,5.0,1109.0,8.0,5.0,2.0
791921.0,0.0,6.0,0.0,6.0,1214.0,8.0,5.0,0.0
791921.0,0.0,1.0,1.0,1.0,915.0,9.0,3.0,0.0
791921.0,0.0,2.0,1.0,2.0,740.0,9.0,3.0,0.0
791921.0,0.0,3.0,1.0,3.0,616.0,9.0,3.0,0.0
791921.0,0.0,4.0,1.0,4.0,1031.0,9.0,3.0,2.0
791921.0,0.0,5.0,0.0,5.0,1143.0,9.0,3.0,0.0
791921.0,0.0,1.0,1.0,1.0,842.0,10.0,3.0,0.0
791921.0,0.0,2.0,1.0,2.0,675.0,10.0,3.0,0.0
791921.0,0.0,3.0,1.0,3.0,1205.0,10.0,3.0,0.0
791921.0,0.0,4.0,1.0,4.0,1339.0,10.0,3.0,1.0
791921.0,1.0,5.0,1.0,0.0,873.0,10.0,3.0,0.0
791921.0,0.0,1.0,1.0,1.0,1542.0,11.0,5.0,0.0
791921.0,0.0,2.0,1.0,2.0,1106.0,11.0,5.0,0.0
791921.0,0.0,3.0,1.0,3.0,1250.0,11.0,5.0,1.0
791921.0,1.0,4.0,1.0,0.0,1438.0,11.0,5.0,0.0
791921.0,0.0,1.0,1.0,1.0,1015.0,12.0,5.0,0.0
791921.0,0.0,2.0,1.0,2.0,1466.0,12.0,5.0,0.0
791921.0,0.0,3.0,1.0,3.0,1312.0,12.0,5.0,0.0
792111.0,0.0,1.0,1.0,1.0,2482.0,1.0,0.0,0.0
792111.0,0.0,2.0,1.0,2.0,1969.0,1.0,0.0,0.0
792111.0,0.0,3.0,1.0,3.0,1107.0,1.0,0.0,0.0
792111.0,0.0,4.0,1.0,4.0,629.0,1.0,0.0,0.0
792111.0,0.0,5.0,1.0,5.0,1077.0,1.0,0.0,0.0
792111.0,0.0,6.0,1.0,6.0,862.0,1.0,0.0,2.0
792111.0,0.0,7.0,0.0,7.0,912.0,1.0,0.0,0.0
792111.0,0.0,1.0,1.0,1.0,818.0,2.0,3.0,0.0
792111.0,0.0,2.0,1.0,2.0,565.0,2.0,3.0,0.0
792111.0,0.0,3.0,1.0,3.0,653.0,2.0,3.0,0.0
792111.0,0.0,4.0,1.0,4.0,719.0,2.0,3.0,0.0
792111.0,0.0,5.0,1.0,5.0,601.0,2.0,3.0,2.0
792111.0,0.0,6.0,0.0,6.0,1974.0,2.0,3.0,0.0
792111.0,0.0,1.0,1.0,1.0,751.0,3.0,3.0,0.0
792111.0,0.0,2.0,1.0,2.0,670.0,3.0,3.0,0.0
792111.0,0.0,3.0,1.0,3.0,738.0,3.0,3.0,0.0
792111.0,0.0,4.0,1.0,4.0,1321.0,3.0,3.0,0.0
792111.0,0.0,5.0,1.0,5.0,1055.0,3.0,3.0,2.0
792111.0,0.0,6.0,0.0,6.0,670.0,3.0,3.0,0.0
792111.0,0.0,1.0,1.0,1.0,2385.0,4.0,3.0,0.0
792111.0,0.0,2.0,1.0,2.0,1018.0,4.0,3.0,0.0
792111.0,0.0,3.0,1.0,3.0,851.0,4.0,3.0,0.0
792111.0,0.0,4.0,1.0,4.0,1242.0,4.0,3.0,0.0
792111.0,0.0,5.0,1.0,5.0,676.0,4.0,3.0,1.0
792111.0,1.0,6.0,1.0,0.0,731.0,4.0,3.0,0.0
792111.0,0.0,1.0,1.0,1.0,1080.0,5.0,5.0,0.0
792111.0,0.0,2.0,1.0,2.0,451.0,5.0,5.0,0.0
792111.0,0.0,3.0,1.0,3.0,451.0,5.0,5.0,0.0
792111.0,0.0,4.0,1.0,4.0,699.0,5.0,5.0,0.0
792111.0,0.0,5.0,1.0,5.0,556.0,5.0,5.0,2.0
792111.0,0.0,6.0,0.0,6.0,496.0,5.0,5.0,0.0
792111.0,0.0,1.0,1.0,1.0,1336.0,6.0,3.0,0.0
792111.0,0.0,2.0,1.0,2.0,1699.0,6.0,3.0,0.0
792111.0,0.0,3.0,1.0,3.0,2611.0,6.0,3.0,0.0
792111.0,0.0,4.0,1.0,4.0,1267.0,6.0,3.0,2.0
792111.0,0.0,5.0,0.0,5.0,626.0,6.0,3.0,0.0
792111.0,0.0,1.0,1.0,1.0,1037.0,7.0,3.0,0.0
792111.0,0.0,2.0,1.0,2.0,738.0,7.0,3.0,0.0
792111.0,0.0,3.0,1.0,3.0,551.0,7.0,3.0,0.0
792111.0,0.0,4.0,1.0,4.0,527.0,7.0,3.0,2.0
792111.0,0.0,5.0,0.0,5.0,628.0,7.0,3.0,0.0
792111.0,0.0,1.0,1.0,1.0,1232.0,8.0,3.0,0.0
792111.0,0.0,2.0,1.0,2.0,700.0,8.0,3.0,0.0
792111.0,0.0,3.0,1.0,3.0,561.0,8.0,3.0,0.0
792111.0,0.0,4.0,1.0,4.0,992.0,8.0,3.0,2.0
792111.0,0.0,5.0,0.0,5.0,580.0,8.0,3.0,0.0
792111.0,0.0,1.0,1.0,1.0,782.0,9.0,3.0,0.0
792111.0,0.0,2.0,1.0,2.0,856.0,9.0,3.0,0.0
792111.0,0.0,3.0,1.0,3.0,902.0,9.0,3.0,0.0
792111.0,0.0,4.0,1.0,4.0,382.0,9.0,3.0,2.0
792111.0,0.0,5.0,0.0,5.0,714.0,9.0,3.0,0.0
792111.0,0.0,1.0,1.0,1.0,768.0,10.0,3.0,0.0
792111.0,0.0,2.0,1.0,2.0,431.0,10.0,3.0,0.0
792111.0,0.0,3.0,1.0,3.0,501.0,10.0,3.0,0.0
792111.0,0.0,4.0,1.0,4.0,656.0,10.0,3.0,2.0
792111.0,0.0,5.0,0.0,5.0,468.0,10.0,3.0,0.0
792111.0,0.0,1.0,1.0,1.0,837.0,11.0,3.0,0.0
792111.0,0.0,2.0,1.0,2.0,440.0,11.0,3.0,0.0
792111.0,0.0,3.0,1.0,3.0,701.0,11.0,3.0,2.0
792111.0,0.0,4.0,0.0,4.0,434.0,11.0,3.0,0.0
792111.0,0.0,1.0,1.0,1.0,823.0,12.0,3.0,0.0
792111.0,0.0,2.0,1.0,2.0,591.0,12.0,3.0,0.0
792111.0,0.0,3.0,1.0,3.0,371.0,12.0,3.0,2.0
792111.0,0.0,4.0,0.0,4.0,1228.0,12.0,3.0,0.0
792111.0,0.0,1.0,1.0,1.0,1031.0,13.0,3.0,0.0
792111.0,0.0,2.0,1.0,2.0,756.0,13.0,3.0,0.0
792111.0,0.0,3.0,1.0,3.0,844.0,13.0,3.0,2.0
792111.0,0.0,4.0,0.0,4.0,765.0,13.0,3.0,0.0
792111.0,0.0,1.0,1.0,1.0,1015.0,14.0,3.0,0.0
792111.0,0.0,2.0,1.0,2.0,779.0,14.0,3.0,0.0
792111.0,0.0,3.0,1.0,3.0,636.0,14.0,3.0,0.0
792111.0,0.0,4.0,1.0,4.0,555.0,14.0,3.0,0.0
792121.0,0.0,1.0,1.0,1.0,1497.0,1.0,0.0,0.0
792121.0,0.0,2.0,1.0,2.0,742.0,1.0,0.0,0.0
792121.0,0.0,3.0,1.0,3.0,907.0,1.0,0.0,0.0
792121.0,0.0,4.0,1.0,4.0,798.0,1.0,0.0,2.0
792121.0,0.0,5.0,0.0,5.0,999.0,1.0,0.0,0.0
792121.0,0.0,1.0,1.0,1.0,825.0,2.0,3.0,0.0
792121.0,0.0,2.0,1.0,2.0,1073.0,2.0,3.0,0.0
792121.0,0.0,3.0,1.0,3.0,617.0,2.0,3.0,2.0
792121.0,0.0,4.0,0.0,4.0,726.0,2.0,3.0,0.0
792121.0,0.0,1.0,1.0,1.0,1294.0,3.0,3.0,0.0
792121.0,0.0,2.0,1.0,2.0,815.0,3.0,3.0,0.0
792121.0,0.0,3.0,1.0,3.0,747.0,3.0,3.0,2.0
792121.0,0.0,4.0,0.0,4.0,866.0,3.0,3.0,0.0
792121.0,0.0,1.0,1.0,1.0,922.0,4.0,3.0,0.0
792121.0,0.0,2.0,1.0,2.0,797.0,4.0,3.0,2.0
792121.0,0.0,3.0,0.0,3.0,690.0,4.0,3.0,0.0
792121.0,0.0,1.0,1.0,1.0,797.0,5.0,3.0,0.0
792121.0,0.0,2.0,1.0,2.0,695.0,5.0,3.0,2.0
792121.0,0.0,3.0,0.0,3.0,763.0,5.0,3.0,0.0
792121.0,0.0,1.0,1.0,1.0,799.0,6.0,3.0,0.0
792121.0,0.0,2.0,1.0,2.0,796.0,6.0,3.0,2.0
792121.0,0.0,3.0,0.0,3.0,1074.0,6.0,3.0,0.0
792121.0,0.0,1.0,1.0,1.0,1186.0,7.0,3.0,0.0
792121.0,0.0,2.0,1.0,2.0,897.0,7.0,3.0,1.0
792121.0,1.0,3.0,1.0,0.0,857.0,7.0,3.0,0.0
792121.0,0.0,1.0,1.0,1.0,964.0,8.0,5.0,0.0
792121.0,0.0,2.0,1.0,2.0,823.0,8.0,5.0,2.0
792121.0,0.0,3.0,0.0,3.0,968.0,8.0,5.0,0.0
792121.0,0.0,1.0,1.0,1.0,1803.0,9.0,3.0,0.0
792121.0,0.0,2.0,1.0,2.0,521.0,9.0,3.0,2.0
792121.0,0.0,3.0,0.0,3.0,2545.0,9.0,3.0,0.0
792121.0,0.0,1.0,1.0,1.0,601.0,10.0,3.0,0.0
792121.0,0.0,2.0,1.0,2.0,582.0,10.0,3.0,2.0
792121.0,0.0,3.0,0.0,3.0,779.0,10.0,3.0,0.0
792121.0,0.0,1.0,1.0,1.0,554.0,11.0,3.0,0.0
792121.0,0.0,2.0,0.0,2.0,883.0,11.0,3.0,0.0
792121.0,0.0,1.0,1.0,1.0,1438.0,12.0,3.0,0.0
792121.0,0.0,2.0,0.0,2.0,2824.0,12.0,3.0,0.0
792121.0,0.0,1.0,1.0,1.0,945.0,13.0,3.0,0.0
792121.0,0.0,2.0,0.0,2.0,804.0,13.0,3.0,0.0
792121.0,0.0,1.0,1.0,1.0,915.0,14.0,3.0,0.0
792121.0,1.0,2.0,1.0,0.0,872.0,14.0,3.0,0.0
792121.0,0.0,1.0,1.0,1.0,1510.0,15.0,5.0,0.0
792121.0,0.0,2.0,0.0,2.0,846.0,15.0,5.0,0.0
792121.0,0.0,1.0,1.0,1.0,834.0,16.0,3.0,0.0
792121.0,0.0,2.0,0.0,2.0,775.0,16.0,3.0,0.0
792121.0,0.0,1.0,1.0,1.0,773.0,17.0,3.0,0.0
792121.0,0.0,2.0,0.0,2.0,946.0,17.0,3.0,0.0
792121.0,0.0,1.0,1.0,1.0,1017.0,18.0,3.0,0.0
792121.0,0.0,2.0,0.0,2.0,636.0,18.0,3.0,0.0
792121.0,0.0,1.0,1.0,1.0,1189.0,19.0,3.0,0.0
792121.0,0.0,2.0,0.0,2.0,1898.0,19.0,3.0,0.0
792121.0,0.0,1.0,1.0,1.0,2819.0,20.0,3.0,0.0
792121.0,0.0,2.0,1.0,2.0,2258.0,20.0,3.0,0.0
792211.0,0.0,1.0,1.0,1.0,1520.0,1.0,0.0,0.0
792211.0,0.0,2.0,1.0,2.0,791.0,1.0,0.0,0.0
792211.0,0.0,3.0,1.0,3.0,595.0,1.0,0.0,0.0
792211.0,0.0,4.0,1.0,4.0,451.0,1.0,0.0,0.0
792211.0,0.0,5.0,1.0,5.0,574.0,1.0,0.0,0.0
792211.0,0.0,6.0,1.0,6.0,1963.0,1.0,0.0,2.0
792211.0,0.0,7.0,0.0,7.0,587.0,1.0,0.0,0.0
792211.0,0.0,1.0,1.0,1.0,665.0,2.0,3.0,0.0
792211.0,0.0,2.0,1.0,2.0,914.0,2.0,3.0,0.0
792211.0,0.0,3.0,1.0,3.0,343.0,2.0,3.0,0.0
792211.0,0.0,4.0,1.0,4.0,760.0,2.0,3.0,0.0
792211.0,0.0,5.0,1.0,5.0,511.0,2.0,3.0,0.0
792211.0,0.0,6.0,1.0,6.0,1288.0,2.0,3.0,2.0
792211.0,0.0,7.0,0.0,7.0,2021.0,2.0,3.0,0.0
792211.0,0.0,1.0,1.0,1.0,514.0,3.0,3.0,0.0
792211.0,0.0,2.0,1.0,2.0,706.0,3.0,3.0,0.0
792211.0,0.0,3.0,1.0,3.0,2012.0,3.0,3.0,0.0
792211.0,0.0,4.0,1.0,4.0,409.0,3.0,3.0,0.0
792211.0,0.0,5.0,1.0,5.0,909.0,3.0,3.0,2.0
792211.0,0.0,6.0,0.0,6.0,487.0,3.0,3.0,0.0
792211.0,0.0,1.0,1.0,1.0,643.0,4.0,3.0,0.0
792211.0,0.0,2.0,1.0,2.0,826.0,4.0,3.0,0.0
792211.0,0.0,3.0,1.0,3.0,433.0,4.0,3.0,0.0
792211.0,0.0,4.0,1.0,4.0,576.0,4.0,3.0,0.0
792211.0,0.0,5.0,1.0,5.0,463.0,4.0,3.0,2.0
792211.0,0.0,6.0,0.0,6.0,359.0,4.0,3.0,0.0
792211.0,0.0,1.0,1.0,1.0,628.0,5.0,3.0,0.0
792211.0,0.0,2.0,1.0,2.0,349.0,5.0,3.0,0.0
792211.0,0.0,3.0,1.0,3.0,327.0,5.0,3.0,0.0
792211.0,0.0,4.0,1.0,4.0,712.0,5.0,3.0,0.0
792211.0,0.0,5.0,1.0,5.0,617.0,5.0,3.0,1.0
792211.0,1.0,6.0,1.0,0.0,372.0,5.0,3.0,0.0
792211.0,0.0,1.0,1.0,1.0,463.0,6.0,5.0,0.0
792211.0,0.0,2.0,1.0,2.0,337.0,6.0,5.0,0.0
792211.0,0.0,3.0,1.0,3.0,724.0,6.0,5.0,0.0
792211.0,0.0,4.0,1.0,4.0,803.0,6.0,5.0,0.0
792211.0,0.0,5.0,1.0,5.0,477.0,6.0,5.0,1.0
792211.0,1.0,6.0,1.0,0.0,427.0,6.0,5.0,0.0
792211.0,0.0,1.0,1.0,1.0,474.0,7.0,5.0,0.0
792211.0,0.0,2.0,1.0,2.0,912.0,7.0,5.0,0.0
792211.0,0.0,3.0,1.0,3.0,478.0,7.0,5.0,0.0
792211.0,0.0,4.0,1.0,4.0,512.0,7.0,5.0,0.0
792211.0,0.0,5.0,1.0,5.0,473.0,7.0,5.0,2.0
792211.0,0.0,6.0,0.0,6.0,444.0,7.0,5.0,0.0
792211.0,0.0,1.0,1.0,1.0,520.0,8.0,3.0,0.0
792211.0,0.0,2.0,1.0,2.0,652.0,8.0,3.0,0.0
792211.0,0.0,3.0,1.0,3.0,369.0,8.0,3.0,0.0
792211.0,0.0,4.0,1.0,4.0,588.0,8.0,3.0,0.0
792211.0,0.0,5.0,1.0,5.0,707.0,8.0,3.0,2.0
792211.0,0.0,6.0,0.0,6.0,616.0,8.0,3.0,0.0
792211.0,0.0,1.0,1.0,1.0,308.0,9.0,3.0,0.0
792211.0,0.0,2.0,1.0,2.0,472.0,9.0,3.0,0.0
792211.0,0.0,3.0,1.0,3.0,497.0,9.0,3.0,0.0
792211.0,0.0,4.0,1.0,4.0,347.0,9.0,3.0,0.0
792211.0,0.0,5.0,1.0,5.0,341.0,9.0,3.0,2.0
792211.0,0.0,6.0,0.0,6.0,493.0,9.0,3.0,0.0
792211.0,0.0,1.0,1.0,1.0,426.0,10.0,3.0,0.0
792211.0,0.0,2.0,1.0,2.0,495.0,10.0,3.0,0.0
792211.0,0.0,3.0,1.0,3.0,359.0,10.0,3.0,0.0
792211.0,0.0,4.0,1.0,4.0,421.0,10.0,3.0,0.0
792211.0,0.0,5.0,1.0,5.0,673.0,10.0,3.0,2.0
792211.0,0.0,6.0,0.0,6.0,630.0,10.0,3.0,0.0
792211.0,0.0,1.0,1.0,1.0,542.0,11.0,3.0,0.0
792211.0,0.0,2.0,1.0,2.0,435.0,11.0,3.0,0.0
792211.0,0.0,3.0,1.0,3.0,656.0,11.0,3.0,0.0
792211.0,0.0,4.0,1.0,4.0,481.0,11.0,3.0,2.0
792211.0,0.0,5.0,0.0,5.0,444.0,11.0,3.0,0.0
792211.0,0.0,1.0,1.0,1.0,368.0,12.0,3.0,0.0
792211.0,0.0,2.0,1.0,2.0,453.0,12.0,3.0,0.0
792211.0,0.0,3.0,1.0,3.0,412.0,12.0,3.0,0.0
792211.0,0.0,4.0,1.0,4.0,351.0,12.0,3.0,2.0
792211.0,0.0,5.0,0.0,5.0,980.0,12.0,3.0,0.0
792211.0,0.0,1.0,1.0,1.0,521.0,13.0,3.0,0.0
792211.0,0.0,2.0,0.0,2.0,496.0,13.0,3.0,0.0
792211.0,0.0,1.0,1.0,1.0,972.0,14.0,3.0,0.0
792211.0,0.0,2.0,1.0,2.0,607.0,14.0,3.0,0.0
792221.0,0.0,1.0,1.0,1.0,909.0,1.0,0.0,0.0
792221.0,0.0,2.0,1.0,2.0,1056.0,1.0,0.0,0.0
792221.0,0.0,3.0,1.0,3.0,549.0,1.0,0.0,0.0
792221.0,0.0,4.0,1.0,4.0,969.0,1.0,0.0,0.0
792221.0,0.0,5.0,1.0,5.0,503.0,1.0,0.0,0.0
792221.0,0.0,6.0,1.0,6.0,661.0,1.0,0.0,1.0
792221.0,1.0,7.0,1.0,0.0,424.0,1.0,0.0,0.0
792221.0,0.0,1.0,1.0,1.0,746.0,2.0,5.0,0.0
792221.0,0.0,2.0,1.0,2.0,814.0,2.0,5.0,0.0
792221.0,0.0,3.0,1.0,3.0,416.0,2.0,5.0,0.0
792221.0,0.0,4.0,1.0,4.0,546.0,2.0,5.0,0.0
792221.0,0.0,5.0,1.0,5.0,365.0,2.0,5.0,0.0
792221.0,0.0,6.0,1.0,6.0,670.0,2.0,5.0,1.0
792221.0,1.0,7.0,1.0,0.0,410.0,2.0,5.0,0.0
792221.0,0.0,1.0,1.0,1.0,394.0,3.0,5.0,0.0
792221.0,0.0,2.0,1.0,2.0,359.0,3.0,5.0,0.0
792221.0,0.0,3.0,1.0,3.0,129.0,3.0,5.0,0.0
792221.0,0.0,4.0,1.0,4.0,393.0,3.0,5.0,0.0
792221.0,0.0,5.0,1.0,5.0,732.0,3.0,5.0,2.0
792221.0,0.0,6.0,0.0,6.0,783.0,3.0,5.0,0.0
792221.0,0.0,1.0,1.0,1.0,560.0,4.0,3.0,0.0
792221.0,0.0,2.0,1.0,2.0,382.0,4.0,3.0,0.0
792221.0,0.0,3.0,1.0,3.0,226.0,4.0,3.0,0.0
792221.0,0.0,4.0,1.0,4.0,706.0,4.0,3.0,0.0
792221.0,0.0,5.0,1.0,5.0,642.0,4.0,3.0,2.0
792221.0,0.0,6.0,0.0,6.0,1303.0,4.0,3.0,0.0
792221.0,0.0,1.0,1.0,1.0,769.0,5.0,3.0,0.0
792221.0,0.0,2.0,1.0,2.0,676.0,5.0,3.0,0.0
792221.0,0.0,3.0,1.0,3.0,439.0,5.0,3.0,0.0
792221.0,0.0,4.0,1.0,4.0,526.0,5.0,3.0,2.0
792221.0,0.0,5.0,0.0,5.0,530.0,5.0,3.0,0.0
792221.0,0.0,1.0,1.0,1.0,399.0,6.0,3.0,0.0
792221.0,0.0,2.0,1.0,2.0,737.0,6.0,3.0,0.0
792221.0,0.0,3.0,1.0,3.0,364.0,6.0,3.0,0.0
792221.0,0.0,4.0,1.0,4.0,693.0,6.0,3.0,2.0
792221.0,0.0,5.0,0.0,5.0,861.0,6.0,3.0,0.0
792221.0,0.0,1.0,1.0,1.0,494.0,7.0,3.0,0.0
792221.0,0.0,2.0,1.0,2.0,391.0,7.0,3.0,0.0
792221.0,0.0,3.0,1.0,3.0,1111.0,7.0,3.0,0.0
792221.0,0.0,4.0,1.0,4.0,490.0,7.0,3.0,2.0
792221.0,0.0,5.0,0.0,5.0,777.0,7.0,3.0,0.0
792221.0,0.0,1.0,1.0,1.0,910.0,8.0,3.0,0.0
792221.0,0.0,2.0,1.0,2.0,1466.0,8.0,3.0,0.0
792221.0,0.0,3.0,1.0,3.0,1094.0,8.0,3.0,0.0
792221.0,0.0,4.0,1.0,4.0,684.0,8.0,3.0,2.0
792221.0,0.0,5.0,0.0,5.0,703.0,8.0,3.0,0.0
792221.0,0.0,1.0,1.0,1.0,607.0,9.0,3.0,0.0
792221.0,0.0,2.0,1.0,2.0,522.0,9.0,3.0,0.0
792221.0,0.0,3.0,1.0,3.0,1007.0,9.0,3.0,0.0
792221.0,0.0,4.0,1.0,4.0,556.0,9.0,3.0,2.0
792221.0,0.0,5.0,0.0,5.0,823.0,9.0,3.0,0.0
792221.0,0.0,1.0,1.0,1.0,649.0,10.0,3.0,0.0
792221.0,0.0,2.0,1.0,2.0,579.0,10.0,3.0,0.0
792221.0,0.0,3.0,1.0,3.0,1217.0,10.0,3.0,2.0
792221.0,0.0,4.0,0.0,4.0,338.0,10.0,3.0,0.0
792221.0,0.0,1.0,1.0,1.0,1049.0,11.0,3.0,0.0
792221.0,0.0,2.0,1.0,2.0,1298.0,11.0,3.0,0.0
792221.0,0.0,3.0,1.0,3.0,389.0,11.0,3.0,1.0
792221.0,1.0,4.0,1.0,0.0,401.0,11.0,3.0,0.0
792221.0,0.0,1.0,1.0,1.0,647.0,12.0,5.0,0.0
792221.0,0.0,2.0,1.0,2.0,496.0,12.0,5.0,1.0
792221.0,1.0,3.0,1.0,0.0,296.0,12.0,5.0,0.0
792221.0,0.0,1.0,1.0,1.0,530.0,13.0,5.0,0.0
792221.0,0.0,2.0,1.0,2.0,569.0,13.0,5.0,2.0
792221.0,0.0,3.0,0.0,3.0,1823.0,13.0,5.0,0.0
792221.0,0.0,1.0,1.0,1.0,619.0,14.0,3.0,0.0
792221.0,0.0,2.0,1.0,2.0,425.0,14.0,3.0,2.0
792221.0,0.0,3.0,0.0,3.0,754.0,14.0,3.0,0.0
792221.0,0.0,1.0,1.0,1.0,1267.0,15.0,3.0,0.0
792221.0,0.0,2.0,1.0,2.0,975.0,15.0,3.0,2.0
792221.0,0.0,3.0,0.0,3.0,826.0,15.0,3.0,0.0
792221.0,0.0,1.0,1.0,1.0,412.0,16.0,3.0,0.0
792221.0,0.0,2.0,1.0,2.0,1798.0,16.0,3.0,0.0
792411.0,0.0,1.0,1.0,1.0,843.0,1.0,0.0,0.0
792411.0,0.0,2.0,1.0,2.0,451.0,1.0,0.0,0.0
792411.0,0.0,3.0,1.0,3.0,542.0,1.0,0.0,0.0
792411.0,0.0,4.0,1.0,4.0,734.0,1.0,0.0,0.0
792411.0,0.0,5.0,1.0,5.0,840.0,1.0,0.0,0.0
792411.0,0.0,6.0,1.0,6.0,553.0,1.0,0.0,2.0
792411.0,0.0,7.0,0.0,7.0,1350.0,1.0,0.0,0.0
792411.0,0.0,1.0,1.0,1.0,680.0,2.0,3.0,0.0
792411.0,0.0,2.0,1.0,2.0,526.0,2.0,3.0,0.0
792411.0,0.0,3.0,1.0,3.0,595.0,2.0,3.0,0.0
792411.0,0.0,4.0,1.0,4.0,590.0,2.0,3.0,0.0
792411.0,0.0,5.0,1.0,5.0,491.0,2.0,3.0,0.0
792411.0,0.0,6.0,1.0,6.0,430.0,2.0,3.0,1.0
792411.0,1.0,7.0,1.0,0.0,516.0,2.0,3.0,0.0
792411.0,0.0,1.0,1.0,1.0,498.0,3.0,5.0,0.0
792411.0,0.0,2.0,1.0,2.0,713.0,3.0,5.0,0.0
792411.0,0.0,3.0,1.0,3.0,1646.0,3.0,5.0,0.0
792411.0,0.0,4.0,1.0,4.0,629.0,3.0,5.0,0.0
792411.0,0.0,5.0,1.0,5.0,531.0,3.0,5.0,0.0
792411.0,0.0,6.0,1.0,6.0,491.0,3.0,5.0,2.0
792411.0,0.0,7.0,0.0,7.0,444.0,3.0,5.0,0.0
792411.0,0.0,1.0,1.0,1.0,758.0,4.0,3.0,0.0
792411.0,0.0,2.0,1.0,2.0,717.0,4.0,3.0,0.0
792411.0,0.0,3.0,1.0,3.0,748.0,4.0,3.0,0.0
792411.0,0.0,4.0,1.0,4.0,1073.0,4.0,3.0,0.0
792411.0,0.0,5.0,1.0,5.0,611.0,4.0,3.0,0.0
792411.0,0.0,6.0,1.0,6.0,953.0,4.0,3.0,1.0
792411.0,1.0,7.0,1.0,0.0,663.0,4.0,3.0,0.0
792411.0,0.0,1.0,1.0,1.0,603.0,5.0,5.0,0.0
792411.0,0.0,2.0,1.0,2.0,439.0,5.0,5.0,0.0
792411.0,0.0,3.0,1.0,3.0,744.0,5.0,5.0,0.0
792411.0,0.0,4.0,1.0,4.0,414.0,5.0,5.0,0.0
792411.0,0.0,5.0,1.0,5.0,648.0,5.0,5.0,1.0
792411.0,1.0,6.0,1.0,0.0,506.0,5.0,5.0,0.0
792411.0,0.0,1.0,1.0,1.0,999.0,6.0,5.0,0.0
792411.0,0.0,2.0,1.0,2.0,804.0,6.0,5.0,0.0
792411.0,0.0,3.0,1.0,3.0,470.0,6.0,5.0,0.0
792411.0,0.0,4.0,1.0,4.0,1798.0,6.0,5.0,0.0
792411.0,0.0,5.0,1.0,5.0,1272.0,6.0,5.0,1.0
792411.0,1.0,6.0,1.0,0.0,553.0,6.0,5.0,0.0
792411.0,0.0,1.0,1.0,1.0,497.0,7.0,5.0,0.0
792411.0,0.0,2.0,1.0,2.0,935.0,7.0,5.0,0.0
792411.0,0.0,3.0,1.0,3.0,866.0,7.0,5.0,0.0
792411.0,0.0,4.0,1.0,4.0,809.0,7.0,5.0,0.0
792411.0,0.0,5.0,1.0,5.0,779.0,7.0,5.0,1.0
792411.0,1.0,6.0,1.0,0.0,419.0,7.0,5.0,0.0
792411.0,0.0,1.0,1.0,1.0,669.0,8.0,5.0,0.0
792411.0,0.0,2.0,1.0,2.0,588.0,8.0,5.0,0.0
792411.0,0.0,3.0,1.0,3.0,840.0,8.0,5.0,0.0
792411.0,0.0,4.0,1.0,4.0,1430.0,8.0,5.0,2.0
792411.0,0.0,5.0,0.0,5.0,1298.0,8.0,5.0,0.0
792411.0,0.0,1.0,1.0,1.0,924.0,9.0,3.0,0.0
792411.0,0.0,2.0,1.0,2.0,894.0,9.0,3.0,0.0
792411.0,0.0,3.0,1.0,3.0,1331.0,9.0,3.0,0.0
792411.0,0.0,4.0,1.0,4.0,383.0,9.0,3.0,2.0
792411.0,0.0,5.0,0.0,5.0,474.0,9.0,3.0,0.0
792411.0,0.0,1.0,1.0,1.0,1124.0,10.0,3.0,0.0
792411.0,0.0,2.0,1.0,2.0,524.0,10.0,3.0,0.0
792411.0,0.0,3.0,1.0,3.0,486.0,10.0,3.0,0.0
792411.0,0.0,4.0,1.0,4.0,417.0,10.0,3.0,1.0
792411.0,1.0,5.0,1.0,0.0,439.0,10.0,3.0,0.0
792411.0,0.0,1.0,1.0,1.0,690.0,11.0,5.0,0.0
792411.0,0.0,2.0,1.0,2.0,427.0,11.0,5.0,0.0
792411.0,0.0,3.0,1.0,3.0,596.0,11.0,5.0,1.0
792411.0,1.0,4.0,1.0,0.0,964.0,11.0,5.0,0.0
792411.0,0.0,1.0,1.0,1.0,715.0,12.0,5.0,0.0
792411.0,0.0,2.0,1.0,2.0,796.0,12.0,5.0,1.0
792411.0,1.0,3.0,1.0,0.0,1093.0,12.0,5.0,0.0
792411.0,0.0,1.0,1.0,1.0,613.0,13.0,5.0,0.0
792411.0,0.0,2.0,1.0,2.0,696.0,13.0,5.0,0.0
792411.0,0.0,3.0,1.0,3.0,633.0,13.0,5.0,0.0
792421.0,0.0,1.0,1.0,1.0,515.0,1.0,0.0,0.0
792421.0,0.0,2.0,1.0,2.0,509.0,1.0,0.0,0.0
792421.0,0.0,3.0,1.0,3.0,379.0,1.0,0.0,0.0
792421.0,0.0,4.0,1.0,4.0,479.0,1.0,0.0,0.0
792421.0,0.0,5.0,1.0,5.0,303.0,1.0,0.0,2.0
792421.0,0.0,6.0,0.0,6.0,328.0,1.0,0.0,0.0
792421.0,0.0,1.0,1.0,1.0,380.0,2.0,3.0,0.0
792421.0,0.0,2.0,1.0,2.0,302.0,2.0,3.0,0.0
792421.0,0.0,3.0,1.0,3.0,326.0,2.0,3.0,0.0
792421.0,0.0,4.0,1.0,4.0,261.0,2.0,3.0,0.0
792421.0,0.0,5.0,1.0,5.0,261.0,2.0,3.0,0.0
792421.0,0.0,6.0,1.0,6.0,287.0,2.0,3.0,1.0
792421.0,1.0,7.0,1.0,0.0,525.0,2.0,3.0,0.0
792421.0,0.0,1.0,1.0,1.0,452.0,3.0,5.0,0.0
792421.0,0.0,2.0,1.0,2.0,309.0,3.0,5.0,0.0
792421.0,0.0,3.0,1.0,3.0,341.0,3.0,5.0,0.0
792421.0,0.0,4.0,1.0,4.0,476.0,3.0,5.0,0.0
792421.0,0.0,5.0,1.0,5.0,333.0,3.0,5.0,1.0
792421.0,1.0,6.0,1.0,0.0,308.0,3.0,5.0,0.0
792421.0,0.0,1.0,1.0,1.0,537.0,4.0,5.0,0.0
792421.0,0.0,2.0,1.0,2.0,313.0,4.0,5.0,0.0
792421.0,0.0,3.0,1.0,3.0,306.0,4.0,5.0,0.0
792421.0,0.0,4.0,1.0,4.0,332.0,4.0,5.0,0.0
792421.0,0.0,5.0,1.0,5.0,263.0,4.0,5.0,1.0
792421.0,1.0,6.0,1.0,0.0,330.0,4.0,5.0,0.0
792421.0,0.0,1.0,1.0,1.0,336.0,5.0,5.0,0.0
792421.0,0.0,2.0,1.0,2.0,249.0,5.0,5.0,0.0
792421.0,0.0,3.0,1.0,3.0,329.0,5.0,5.0,0.0
792421.0,0.0,4.0,1.0,4.0,329.0,5.0,5.0,0.0
792421.0,0.0,5.0,1.0,5.0,289.0,5.0,5.0,2.0
792421.0,0.0,6.0,0.0,6.0,299.0,5.0,5.0,0.0
792421.0,0.0,1.0,1.0,1.0,443.0,6.0,3.0,0.0
792421.0,0.0,2.0,1.0,2.0,228.0,6.0,3.0,0.0
792421.0,0.0,3.0,1.0,3.0,369.0,6.0,3.0,0.0
792421.0,0.0,4.0,1.0,4.0,328.0,6.0,3.0,0.0
792421.0,0.0,5.0,1.0,5.0,275.0,6.0,3.0,1.0
792421.0,1.0,6.0,1.0,0.0,308.0,6.0,3.0,0.0
792421.0,0.0,1.0,1.0,1.0,536.0,7.0,5.0,0.0
792421.0,0.0,2.0,1.0,2.0,412.0,7.0,5.0,0.0
792421.0,0.0,3.0,1.0,3.0,399.0,7.0,5.0,0.0
792421.0,0.0,4.0,1.0,4.0,330.0,7.0,5.0,0.0
792421.0,0.0,5.0,1.0,5.0,338.0,7.0,5.0,1.0
792421.0,1.0,6.0,1.0,0.0,303.0,7.0,5.0,0.0
792421.0,0.0,1.0,1.0,1.0,358.0,8.0,5.0,0.0
792421.0,0.0,2.0,1.0,2.0,286.0,8.0,5.0,0.0
792421.0,0.0,3.0,1.0,3.0,257.0,8.0,5.0,0.0
792421.0,0.0,4.0,1.0,4.0,377.0,8.0,5.0,2.0
792421.0,0.0,5.0,0.0,5.0,338.0,8.0,5.0,0.0
792421.0,0.0,1.0,1.0,1.0,641.0,9.0,3.0,0.0
792421.0,0.0,2.0,1.0,2.0,441.0,9.0,3.0,0.0
792421.0,0.0,3.0,1.0,3.0,365.0,9.0,3.0,0.0
792421.0,0.0,4.0,1.0,4.0,321.0,9.0,3.0,2.0
792421.0,0.0,5.0,0.0,5.0,310.0,9.0,3.0,0.0
792421.0,0.0,1.0,1.0,1.0,796.0,10.0,3.0,0.0
792421.0,0.0,2.0,1.0,2.0,409.0,10.0,3.0,0.0
792421.0,0.0,3.0,1.0,3.0,477.0,10.0,3.0,0.0
792421.0,0.0,4.0,1.0,4.0,333.0,10.0,3.0,2.0
792421.0,0.0,5.0,0.0,5.0,621.0,10.0,3.0,0.0
792421.0,0.0,1.0,1.0,1.0,365.0,11.0,3.0,0.0
792421.0,0.0,2.0,1.0,2.0,1084.0,11.0,3.0,0.0
792421.0,0.0,3.0,1.0,3.0,392.0,11.0,3.0,0.0
792421.0,0.0,4.0,1.0,4.0,327.0,11.0,3.0,1.0
792421.0,1.0,5.0,1.0,0.0,501.0,11.0,3.0,0.0
792421.0,0.0,1.0,1.0,1.0,559.0,12.0,5.0,0.0
792421.0,0.0,2.0,1.0,2.0,449.0,12.0,5.0,0.0
792421.0,0.0,3.0,1.0,3.0,676.0,12.0,5.0,2.0
792421.0,0.0,4.0,0.0,4.0,692.0,12.0,5.0,0.0
792421.0,0.0,1.0,1.0,1.0,582.0,13.0,3.0,0.0
792421.0,0.0,2.0,1.0,2.0,611.0,13.0,3.0,0.0
792421.0,0.0,3.0,1.0,3.0,478.0,13.0,3.0,2.0
792421.0,0.0,4.0,0.0,4.0,349.0,13.0,3.0,0.0
792421.0,0.0,1.0,1.0,1.0,642.0,14.0,3.0,0.0
792421.0,0.0,2.0,1.0,2.0,367.0,14.0,3.0,0.0
792421.0,0.0,3.0,1.0,3.0,564.0,14.0,3.0,1.0
792421.0,1.0,4.0,1.0,0.0,445.0,14.0,3.0,0.0
792421.0,0.0,1.0,1.0,1.0,623.0,15.0,5.0,0.0
792421.0,0.0,2.0,1.0,2.0,624.0,15.0,5.0,0.0
792811.0,0.0,1.0,1.0,1.0,351.0,1.0,0.0,0.0
792811.0,0.0,2.0,1.0,2.0,310.0,1.0,0.0,0.0
792811.0,0.0,3.0,1.0,3.0,278.0,1.0,0.0,0.0
792811.0,0.0,4.0,1.0,4.0,305.0,1.0,0.0,0.0
792811.0,0.0,5.0,1.0,5.0,344.0,1.0,0.0,0.0
792811.0,0.0,6.0,1.0,6.0,335.0,1.0,0.0,2.0
792811.0,0.0,7.0,0.0,7.0,642.0,1.0,0.0,0.0
792811.0,0.0,1.0,1.0,1.0,928.0,2.0,3.0,0.0
792811.0,0.0,2.0,1.0,2.0,257.0,2.0,3.0,0.0
792811.0,0.0,3.0,1.0,3.0,313.0,2.0,3.0,0.0
792811.0,0.0,4.0,1.0,4.0,455.0,2.0,3.0,0.0
792811.0,0.0,5.0,1.0,5.0,911.0,2.0,3.0,0.0
792811.0,0.0,6.0,1.0,6.0,1317.0,2.0,3.0,1.0
792811.0,1.0,7.0,1.0,0.0,335.0,2.0,3.0,0.0
792811.0,0.0,1.0,1.0,1.0,420.0,3.0,5.0,0.0
792811.0,0.0,2.0,1.0,2.0,113.0,3.0,5.0,0.0
792811.0,0.0,3.0,1.0,3.0,300.0,3.0,5.0,0.0
792811.0,0.0,4.0,1.0,4.0,646.0,3.0,5.0,0.0
792811.0,0.0,5.0,1.0,5.0,1318.0,3.0,5.0,0.0
792811.0,0.0,6.0,1.0,6.0,338.0,3.0,5.0,2.0
792811.0,0.0,7.0,0.0,7.0,360.0,3.0,5.0,0.0
792811.0,0.0,1.0,1.0,1.0,470.0,4.0,3.0,0.0
792811.0,0.0,2.0,1.0,2.0,344.0,4.0,3.0,0.0
792811.0,0.0,3.0,1.0,3.0,328.0,4.0,3.0,0.0
792811.0,0.0,4.0,1.0,4.0,311.0,4.0,3.0,0.0
792811.0,0.0,5.0,1.0,5.0,368.0,4.0,3.0,0.0
792811.0,0.0,6.0,1.0,6.0,399.0,4.0,3.0,2.0
792811.0,0.0,7.0,0.0,7.0,557.0,4.0,3.0,0.0
792811.0,0.0,1.0,1.0,1.0,478.0,5.0,3.0,0.0
792811.0,0.0,2.0,1.0,2.0,124.0,5.0,3.0,0.0
792811.0,0.0,3.0,1.0,3.0,802.0,5.0,3.0,0.0
792811.0,0.0,4.0,1.0,4.0,1317.0,5.0,3.0,0.0
792811.0,0.0,5.0,1.0,5.0,620.0,5.0,3.0,0.0
792811.0,0.0,6.0,1.0,6.0,1296.0,5.0,3.0,1.0
792811.0,1.0,7.0,1.0,0.0,324.0,5.0,3.0,0.0
792811.0,0.0,1.0,1.0,1.0,496.0,6.0,5.0,0.0
792811.0,0.0,2.0,1.0,2.0,671.0,6.0,5.0,0.0
792811.0,0.0,3.0,1.0,3.0,489.0,6.0,5.0,0.0
792811.0,0.0,4.0,1.0,4.0,606.0,6.0,5.0,0.0
792811.0,0.0,5.0,1.0,5.0,989.0,6.0,5.0,0.0
792811.0,0.0,6.0,1.0,6.0,1167.0,6.0,5.0,2.0
792811.0,0.0,7.0,0.0,7.0,306.0,6.0,5.0,0.0
792811.0,0.0,1.0,1.0,1.0,361.0,7.0,3.0,0.0
792811.0,0.0,2.0,1.0,2.0,333.0,7.0,3.0,0.0
792811.0,0.0,3.0,1.0,3.0,406.0,7.0,3.0,0.0
792811.0,0.0,4.0,1.0,4.0,428.0,7.0,3.0,0.0
792811.0,0.0,5.0,1.0,5.0,1186.0,7.0,3.0,0.0
792811.0,0.0,6.0,1.0,6.0,2147.0,7.0,3.0,2.0
792811.0,0.0,7.0,0.0,7.0,424.0,7.0,3.0,0.0
792811.0,0.0,1.0,1.0,1.0,371.0,8.0,3.0,0.0
792811.0,0.0,2.0,1.0,2.0,1192.0,8.0,3.0,0.0
792811.0,0.0,3.0,1.0,3.0,291.0,8.0,3.0,0.0
792811.0,0.0,4.0,1.0,4.0,512.0,8.0,3.0,0.0
792811.0,0.0,5.0,1.0,5.0,1110.0,8.0,3.0,2.0
792811.0,0.0,6.0,0.0,6.0,460.0,8.0,3.0,0.0
792811.0,0.0,1.0,1.0,1.0,373.0,9.0,3.0,0.0
792811.0,0.0,2.0,1.0,2.0,402.0,9.0,3.0,0.0
792811.0,0.0,3.0,1.0,3.0,353.0,9.0,3.0,0.0
792811.0,0.0,4.0,1.0,4.0,347.0,9.0,3.0,0.0
792811.0,0.0,5.0,1.0,5.0,322.0,9.0,3.0,2.0
792811.0,0.0,6.0,0.0,6.0,515.0,9.0,3.0,0.0
792811.0,0.0,1.0,1.0,1.0,665.0,10.0,3.0,0.0
792811.0,0.0,2.0,1.0,2.0,548.0,10.0,3.0,0.0
792811.0,0.0,3.0,1.0,3.0,357.0,10.0,3.0,0.0
792811.0,0.0,4.0,1.0,4.0,343.0,10.0,3.0,0.0
792811.0,0.0,5.0,1.0,5.0,319.0,10.0,3.0,2.0
792811.0,0.0,6.0,0.0,6.0,388.0,10.0,3.0,0.0
792811.0,0.0,1.0,1.0,1.0,339.0,11.0,3.0,0.0
792811.0,0.0,2.0,1.0,2.0,354.0,11.0,3.0,0.0
792811.0,0.0,3.0,1.0,3.0,415.0,11.0,3.0,0.0
792811.0,0.0,4.0,1.0,4.0,1040.0,11.0,3.0,0.0
792811.0,0.0,5.0,1.0,5.0,1234.0,11.0,3.0,2.0
792811.0,0.0,6.0,0.0,6.0,423.0,11.0,3.0,0.0
792811.0,0.0,1.0,1.0,1.0,359.0,12.0,3.0,0.0
792811.0,0.0,2.0,1.0,2.0,337.0,12.0,3.0,0.0
792811.0,0.0,3.0,1.0,3.0,455.0,12.0,3.0,0.0
792811.0,0.0,4.0,1.0,4.0,700.0,12.0,3.0,1.0
792811.0,1.0,5.0,1.0,0.0,2086.0,12.0,3.0,0.0
792811.0,0.0,1.0,1.0,1.0,580.0,13.0,5.0,0.0
792811.0,0.0,2.0,1.0,2.0,371.0,13.0,5.0,2.0
792811.0,0.0,3.0,0.0,3.0,616.0,13.0,5.0,0.0
792811.0,0.0,1.0,1.0,1.0,559.0,14.0,3.0,0.0
792811.0,0.0,2.0,1.0,2.0,442.0,14.0,3.0,0.0
792821.0,0.0,1.0,1.0,1.0,797.0,1.0,0.0,0.0
792821.0,0.0,2.0,1.0,2.0,707.0,1.0,0.0,0.0
792821.0,0.0,3.0,1.0,3.0,390.0,1.0,0.0,0.0
792821.0,0.0,4.0,1.0,4.0,1473.0,1.0,0.0,0.0
792821.0,0.0,5.0,1.0,5.0,1124.0,1.0,0.0,0.0
792821.0,0.0,6.0,1.0,6.0,1415.0,1.0,0.0,1.0
792821.0,1.0,7.0,1.0,0.0,1626.0,1.0,0.0,0.0
792821.0,0.0,1.0,1.0,1.0,680.0,2.0,5.0,0.0
792821.0,0.0,2.0,1.0,2.0,343.0,2.0,5.0,0.0
792821.0,0.0,3.0,1.0,3.0,964.0,2.0,5.0,0.0
792821.0,0.0,4.0,1.0,4.0,1212.0,2.0,5.0,0.0
792821.0,0.0,5.0,1.0,5.0,1401.0,2.0,5.0,0.0
792821.0,0.0,6.0,1.0,6.0,1525.0,2.0,5.0,1.0
792821.0,1.0,7.0,1.0,0.0,1060.0,2.0,5.0,0.0
792821.0,0.0,1.0,1.0,1.0,992.0,3.0,5.0,0.0
792821.0,0.0,2.0,1.0,2.0,898.0,3.0,5.0,0.0
792821.0,0.0,3.0,1.0,3.0,489.0,3.0,5.0,0.0
792821.0,0.0,4.0,1.0,4.0,1395.0,3.0,5.0,0.0
792821.0,0.0,5.0,1.0,5.0,1596.0,3.0,5.0,0.0