subj_idx,isblow,pump_idx,choice,reward,reaction_time,trial,HE,PCPP
777511.0,0.0,1.0,1.0,1.0,475.0,1.0,0.0,0.0
777511.0,0.0,2.0,1.0,2.0,473.0,1.0,0.0,0.0
777511.0,0.0,3.0,1.0,3.0,376.0,1.0,0.0,0.0
777511.0,0.0,4.0,1.0,4.0,589.0,1.0,0.0,0.0
777511.0,0.0,5.0,1.0,5.0,544.0,1.0,0.0,0.0
777511.0,0.0,6.0,1.0,6.0,579.0,1.0,0.0,1.0
777511.0,1.0,7.0,1.0,0.0,415.0,1.0,0.0,0.0
777511.0,0.0,1.0,1.0,1.0,555.0,2.0,5.0,0.0
777511.0,0.0,2.0,1.0,2.0,316.0,2.0,5.0,0.0
777511.0,0.0,3.0,1.0,3.0,461.0,2.0,5.0,0.0
777511.0,0.0,4.0,1.0,4.0,459.0,2.0,5.0,0.0
777511.0,0.0,5.0,1.0,5.0,326.0,2.0,5.0,0.0
777511.0,0.0,6.0,1.0,6.0,476.0,2.0,5.0,2.0
777511.0,0.0,7.0,0.0,7.0,288.0,2.0,5.0,0.0
777511.0,0.0,1.0,1.0,1.0,405.0,3.0,3.0,0.0
777511.0,0.0,2.0,1.0,2.0,394.0,3.0,3.0,0.0
777511.0,0.0,3.0,1.0,3.0,366.0,3.0,3.0,0.0
777511.0,0.0,4.0,1.0,4.0,664.0,3.0,3.0,0.0
777511.0,0.0,5.0,1.0,5.0,352.0,3.0,3.0,0.0
777511.0,0.0,6.0,1.0,6.0,400.0,3.0,3.0,1.0
777511.0,1.0,7.0,1.0,0.0,465.0,3.0,3.0,0.0
777511.0,0.0,1.0,1.0,1.0,729.0,4.0,5.0,0.0
777511.0,0.0,2.0,1.0,2.0,425.0,4.0,5.0,0.0
777511.0,0.0,3.0,1.0,3.0,1951.0,4.0,5.0,0.0
777511.0,0.0,4.0,1.0,4.0,972.0,4.0,5.0,0.0
777511.0,0.0,5.0,1.0,5.0,570.0,4.0,5.0,0.0
777511.0,0.0,6.0,1.0,6.0,622.0,4.0,5.0,1.0
777511.0,1.0,7.0,1.0,0.0,394.0,4.0,5.0,0.0
777511.0,0.0,1.0,1.0,1.0,806.0,5.0,5.0,0.0
777511.0,0.0,2.0,1.0,2.0,1913.0,5.0,5.0,0.0
777511.0,0.0,3.0,1.0,3.0,478.0,5.0,5.0,0.0
777511.0,0.0,4.0,1.0,4.0,634.0,5.0,5.0,0.0
777511.0,0.0,5.0,1.0,5.0,725.0,5.0,5.0,0.0
777511.0,0.0,6.0,1.0,6.0,515.0,5.0,5.0,2.0
777511.0,0.0,7.0,0.0,7.0,633.0,5.0,5.0,0.0
777511.0,0.0,1.0,1.0,1.0,634.0,6.0,3.0,0.0
777511.0,0.0,2.0,1.0,2.0,576.0,6.0,3.0,0.0
777511.0,0.0,3.0,1.0,3.0,458.0,6.0,3.0,0.0
777511.0,0.0,4.0,1.0,4.0,432.0,6.0,3.0,0.0
777511.0,0.0,5.0,1.0,5.0,464.0,6.0,3.0,2.0
777511.0,0.0,6.0,0.0,6.0,1101.0,6.0,3.0,0.0
777511.0,0.0,1.0,1.0,1.0,1454.0,7.0,3.0,0.0
777511.0,0.0,2.0,1.0,2.0,519.0,7.0,3.0,0.0
777511.0,0.0,3.0,1.0,3.0,1054.0,7.0,3.0,0.0
777511.0,0.0,4.0,1.0,4.0,862.0,7.0,3.0,0.0
777511.0,0.0,5.0,1.0,5.0,668.0,7.0,3.0,1.0
777511.0,1.0,6.0,1.0,0.0,1266.0,7.0,3.0,0.0
777511.0,0.0,1.0,1.0,1.0,692.0,8.0,5.0,0.0
777511.0,0.0,2.0,1.0,2.0,455.0,8.0,5.0,0.0
777511.0,0.0,3.0,1.0,3.0,915.0,8.0,5.0,0.0
777511.0,0.0,4.0,1.0,4.0,376.0,8.0,5.0,2.0
777511.0,0.0,5.0,0.0,5.0,1975.0,8.0,5.0,0.0
777511.0,0.0,1.0,1.0,1.0,890.0,9.0,3.0,0.0
777511.0,0.0,2.0,1.0,2.0,584.0,9.0,3.0,0.0
777511.0,0.0,3.0,1.0,3.0,640.0,9.0,3.0,2.0
777511.0,0.0,4.0,0.0,4.0,797.0,9.0,3.0,0.0
777511.0,0.0,1.0,1.0,1.0,459.0,10.0,3.0,0.0
777511.0,0.0,2.0,1.0,2.0,380.0,10.0,3.0,0.0
777511.0,0.0,3.0,1.0,3.0,907.0,10.0,3.0,1.0
777511.0,1.0,4.0,1.0,0.0,442.0,10.0,3.0,0.0
777511.0,0.0,1.0,1.0,1.0,500.0,11.0,5.0,0.0
777511.0,0.0,2.0,1.0,2.0,770.0,11.0,5.0,0.0
777511.0,0.0,3.0,1.0,3.0,581.0,11.0,5.0,2.0
777511.0,0.0,4.0,0.0,4.0,1447.0,11.0,5.0,0.0
777511.0,0.0,1.0,1.0,1.0,832.0,12.0,3.0,0.0
777511.0,0.0,2.0,0.0,2.0,1475.0,12.0,3.0,0.0
777511.0,0.0,1.0,1.0,1.0,778.0,13.0,3.0,0.0
777511.0,0.0,2.0,0.0,2.0,603.0,13.0,3.0,0.0
777511.0,0.0,1.0,1.0,1.0,1268.0,14.0,3.0,0.0
777511.0,0.0,2.0,1.0,2.0,895.0,14.0,3.0,0.0
777611.0,0.0,1.0,1.0,1.0,478.0,1.0,0.0,0.0
777611.0,0.0,2.0,1.0,2.0,368.0,1.0,0.0,0.0
777611.0,0.0,3.0,1.0,3.0,404.0,1.0,0.0,0.0
777611.0,0.0,4.0,1.0,4.0,295.0,1.0,0.0,0.0
777611.0,0.0,5.0,1.0,5.0,463.0,1.0,0.0,0.0
777611.0,0.0,6.0,1.0,6.0,342.0,1.0,0.0,1.0
777611.0,1.0,7.0,1.0,0.0,351.0,1.0,0.0,0.0
777611.0,0.0,1.0,1.0,1.0,630.0,2.0,5.0,0.0
777611.0,0.0,2.0,1.0,2.0,323.0,2.0,5.0,0.0
777611.0,0.0,3.0,1.0,3.0,266.0,2.0,5.0,0.0
777611.0,0.0,4.0,1.0,4.0,401.0,2.0,5.0,0.0
777611.0,0.0,5.0,1.0,5.0,350.0,2.0,5.0,0.0
777611.0,0.0,6.0,1.0,6.0,449.0,2.0,5.0,2.0
777611.0,0.0,7.0,0.0,7.0,330.0,2.0,5.0,0.0
777611.0,0.0,1.0,1.0,1.0,781.0,3.0,3.0,0.0
777611.0,0.0,2.0,1.0,2.0,339.0,3.0,3.0,0.0
777611.0,0.0,3.0,1.0,3.0,398.0,3.0,3.0,0.0
777611.0,0.0,4.0,1.0,4.0,412.0,3.0,3.0,0.0
777611.0,0.0,5.0,1.0,5.0,345.0,3.0,3.0,0.0
777611.0,0.0,6.0,1.0,6.0,452.0,3.0,3.0,2.0
777611.0,0.0,7.0,0.0,7.0,351.0,3.0,3.0,0.0
777611.0,0.0,1.0,1.0,1.0,565.0,4.0,3.0,0.0
777611.0,0.0,2.0,1.0,2.0,386.0,4.0,3.0,0.0
777611.0,0.0,3.0,1.0,3.0,362.0,4.0,3.0,0.0
777611.0,0.0,4.0,1.0,4.0,455.0,4.0,3.0,0.0
777611.0,0.0,5.0,1.0,5.0,481.0,4.0,3.0,0.0
777611.0,0.0,6.0,1.0,6.0,372.0,4.0,3.0,2.0
777611.0,0.0,7.0,0.0,7.0,392.0,4.0,3.0,0.0
777611.0,0.0,1.0,1.0,1.0,693.0,5.0,3.0,0.0
777611.0,0.0,2.0,1.0,2.0,397.0,5.0,3.0,0.0
777611.0,0.0,3.0,1.0,3.0,392.0,5.0,3.0,0.0
777611.0,0.0,4.0,1.0,4.0,363.0,5.0,3.0,0.0
777611.0,0.0,5.0,1.0,5.0,310.0,5.0,3.0,1.0
777611.0,1.0,6.0,1.0,0.0,340.0,5.0,3.0,0.0
777611.0,0.0,1.0,1.0,1.0,735.0,6.0,5.0,0.0
777611.0,0.0,2.0,1.0,2.0,395.0,6.0,5.0,0.0
777611.0,0.0,3.0,1.0,3.0,417.0,6.0,5.0,0.0
777611.0,0.0,4.0,1.0,4.0,305.0,6.0,5.0,0.0
777611.0,0.0,5.0,1.0,5.0,308.0,6.0,5.0,1.0
777611.0,1.0,6.0,1.0,0.0,350.0,6.0,5.0,0.0
777611.0,0.0,1.0,1.0,1.0,664.0,7.0,5.0,0.0
777611.0,0.0,2.0,1.0,2.0,259.0,7.0,5.0,0.0
777611.0,0.0,3.0,1.0,3.0,445.0,7.0,5.0,0.0
777611.0,0.0,4.0,1.0,4.0,350.0,7.0,5.0,0.0
777611.0,0.0,5.0,1.0,5.0,547.0,7.0,5.0,2.0
777611.0,0.0,6.0,0.0,6.0,743.0,7.0,5.0,0.0
777611.0,0.0,1.0,1.0,1.0,543.0,8.0,3.0,0.0
777611.0,0.0,2.0,1.0,2.0,365.0,8.0,3.0,0.0
777611.0,0.0,3.0,1.0,3.0,146.0,8.0,3.0,0.0
777611.0,0.0,4.0,1.0,4.0,385.0,8.0,3.0,0.0
777611.0,0.0,5.0,1.0,5.0,369.0,8.0,3.0,2.0
777611.0,0.0,6.0,0.0,6.0,404.0,8.0,3.0,0.0
777611.0,0.0,1.0,1.0,1.0,799.0,9.0,3.0,0.0
777611.0,0.0,2.0,1.0,2.0,297.0,9.0,3.0,0.0
777611.0,0.0,3.0,1.0,3.0,381.0,9.0,3.0,0.0
777611.0,0.0,4.0,1.0,4.0,428.0,9.0,3.0,1.0
777611.0,1.0,5.0,1.0,0.0,556.0,9.0,3.0,0.0
777611.0,0.0,1.0,1.0,1.0,732.0,10.0,5.0,0.0
777611.0,0.0,2.0,1.0,2.0,300.0,10.0,5.0,0.0
777611.0,0.0,3.0,1.0,3.0,245.0,10.0,5.0,0.0
777611.0,0.0,4.0,1.0,4.0,575.0,10.0,5.0,0.0
777611.0,0.0,5.0,1.0,5.0,356.0,10.0,5.0,1.0
777611.0,1.0,6.0,1.0,0.0,386.0,10.0,5.0,0.0
777611.0,0.0,1.0,1.0,1.0,371.0,11.0,5.0,0.0
777611.0,0.0,2.0,1.0,2.0,319.0,11.0,5.0,0.0
777611.0,0.0,3.0,1.0,3.0,317.0,11.0,5.0,0.0
777611.0,0.0,4.0,1.0,4.0,446.0,11.0,5.0,0.0
777611.0,0.0,5.0,1.0,5.0,479.0,11.0,5.0,2.0
777611.0,0.0,6.0,0.0,6.0,446.0,11.0,5.0,0.0
777611.0,0.0,1.0,1.0,1.0,1213.0,12.0,3.0,0.0
777611.0,0.0,2.0,1.0,2.0,246.0,12.0,3.0,0.0
777611.0,0.0,3.0,1.0,3.0,455.0,12.0,3.0,0.0
777611.0,0.0,4.0,1.0,4.0,472.0,12.0,3.0,1.0
777611.0,1.0,5.0,1.0,0.0,399.0,12.0,3.0,0.0
777611.0,0.0,1.0,1.0,1.0,611.0,13.0,5.0,0.0
777611.0,0.0,2.0,1.0,2.0,365.0,13.0,5.0,0.0
777611.0,0.0,3.0,1.0,3.0,340.0,13.0,5.0,0.0
777611.0,0.0,4.0,1.0,4.0,423.0,13.0,5.0,2.0
777611.0,0.0,5.0,0.0,5.0,462.0,13.0,5.0,0.0
777611.0,0.0,1.0,1.0,1.0,683.0,14.0,3.0,0.0
777611.0,0.0,2.0,1.0,2.0,348.0,14.0,3.0,1.0
777611.0,1.0,3.0,1.0,0.0,1012.0,14.0,3.0,0.0
777611.0,0.0,1.0,1.0,1.0,511.0,15.0,5.0,0.0
777611.0,0.0,2.0,1.0,2.0,325.0,15.0,5.0,0.0
778711.0,0.0,1.0,1.0,1.0,956.0,1.0,0.0,0.0
778711.0,0.0,2.0,1.0,2.0,534.0,1.0,0.0,0.0
778711.0,0.0,3.0,1.0,3.0,405.0,1.0,0.0,0.0
778711.0,0.0,4.0,1.0,4.0,459.0,1.0,0.0,0.0
778711.0,0.0,5.0,1.0,5.0,391.0,1.0,0.0,2.0
778711.0,0.0,6.0,0.0,6.0,507.0,1.0,0.0,0.0
778711.0,0.0,1.0,1.0,1.0,661.0,2.0,3.0,0.0
778711.0,0.0,2.0,1.0,2.0,420.0,2.0,3.0,0.0
778711.0,0.0,3.0,1.0,3.0,465.0,2.0,3.0,0.0
778711.0,0.0,4.0,1.0,4.0,466.0,2.0,3.0,0.0
778711.0,0.0,5.0,1.0,5.0,428.0,2.0,3.0,1.0
778711.0,1.0,6.0,1.0,0.0,438.0,2.0,3.0,0.0
778711.0,0.0,1.0,1.0,1.0,927.0,3.0,5.0,0.0
778711.0,0.0,2.0,1.0,2.0,466.0,3.0,5.0,0.0
778711.0,0.0,3.0,1.0,3.0,626.0,3.0,5.0,0.0
778711.0,0.0,4.0,1.0,4.0,477.0,3.0,5.0,2.0
778711.0,0.0,5.0,0.0,5.0,876.0,3.0,5.0,0.0
778711.0,0.0,1.0,1.0,1.0,696.0,4.0,3.0,0.0
778711.0,0.0,2.0,1.0,2.0,563.0,4.0,3.0,0.0
778711.0,0.0,3.0,1.0,3.0,527.0,4.0,3.0,0.0
778711.0,0.0,4.0,1.0,4.0,526.0,4.0,3.0,1.0
778711.0,1.0,5.0,1.0,0.0,398.0,4.0,3.0,0.0
778711.0,0.0,1.0,1.0,1.0,1004.0,5.0,5.0,0.0
778711.0,0.0,2.0,1.0,2.0,423.0,5.0,5.0,0.0
778711.0,0.0,3.0,1.0,3.0,352.0,5.0,5.0,0.0
778711.0,0.0,4.0,1.0,4.0,424.0,5.0,5.0,1.0
778711.0,1.0,5.0,1.0,0.0,357.0,5.0,5.0,0.0
778711.0,0.0,1.0,1.0,1.0,455.0,6.0,5.0,0.0
778711.0,0.0,2.0,1.0,2.0,443.0,6.0,5.0,0.0
778711.0,0.0,3.0,1.0,3.0,342.0,6.0,5.0,0.0
778711.0,0.0,4.0,1.0,4.0,333.0,6.0,5.0,2.0
778711.0,0.0,5.0,0.0,5.0,368.0,6.0,5.0,0.0
778711.0,0.0,1.0,1.0,1.0,496.0,7.0,3.0,0.0
778711.0,0.0,2.0,1.0,2.0,353.0,7.0,3.0,0.0
778711.0,0.0,3.0,1.0,3.0,369.0,7.0,3.0,0.0
778711.0,0.0,4.0,1.0,4.0,438.0,7.0,3.0,2.0
778711.0,0.0,5.0,0.0,5.0,381.0,7.0,3.0,0.0
778711.0,0.0,1.0,1.0,1.0,592.0,8.0,3.0,0.0
778711.0,0.0,2.0,1.0,2.0,459.0,8.0,3.0,0.0
778711.0,0.0,3.0,1.0,3.0,360.0,8.0,3.0,0.0
778711.0,0.0,4.0,1.0,4.0,390.0,8.0,3.0,2.0
778711.0,0.0,5.0,0.0,5.0,405.0,8.0,3.0,0.0
778711.0,0.0,1.0,1.0,1.0,491.0,9.0,3.0,0.0
778711.0,0.0,2.0,1.0,2.0,394.0,9.0,3.0,0.0
778711.0,0.0,3.0,1.0,3.0,511.0,9.0,3.0,0.0
778711.0,0.0,4.0,1.0,4.0,338.0,9.0,3.0,2.0
778711.0,0.0,5.0,0.0,5.0,655.0,9.0,3.0,0.0
778711.0,0.0,1.0,1.0,1.0,683.0,10.0,3.0,0.0
778711.0,0.0,2.0,1.0,2.0,505.0,10.0,3.0,0.0
778711.0,0.0,3.0,1.0,3.0,462.0,10.0,3.0,0.0
778711.0,0.0,4.0,1.0,4.0,464.0,10.0,3.0,1.0
778711.0,1.0,5.0,1.0,0.0,599.0,10.0,3.0,0.0
778711.0,0.0,1.0,1.0,1.0,1403.0,11.0,5.0,0.0
778711.0,0.0,2.0,1.0,2.0,485.0,11.0,5.0,0.0
778711.0,0.0,3.0,1.0,3.0,379.0,11.0,5.0,0.0
778711.0,0.0,4.0,1.0,4.0,708.0,11.0,5.0,1.0
778711.0,1.0,5.0,1.0,0.0,413.0,11.0,5.0,0.0
778711.0,0.0,1.0,1.0,1.0,527.0,12.0,5.0,0.0
778711.0,0.0,2.0,1.0,2.0,375.0,12.0,5.0,0.0
778711.0,0.0,3.0,1.0,3.0,416.0,12.0,5.0,2.0
778711.0,0.0,4.0,0.0,4.0,381.0,12.0,5.0,0.0
778711.0,0.0,1.0,1.0,1.0,429.0,13.0,3.0,0.0
778711.0,0.0,2.0,1.0,2.0,293.0,13.0,3.0,0.0
778711.0,0.0,3.0,1.0,3.0,579.0,13.0,3.0,2.0
778711.0,0.0,4.0,0.0,4.0,749.0,13.0,3.0,0.0
778711.0,0.0,1.0,1.0,1.0,651.0,14.0,3.0,0.0
778711.0,0.0,2.0,1.0,2.0,615.0,14.0,3.0,0.0
778711.0,0.0,3.0,1.0,3.0,1001.0,14.0,3.0,2.0
778711.0,0.0,4.0,0.0,4.0,550.0,14.0,3.0,0.0
778711.0,0.0,1.0,1.0,1.0,919.0,15.0,3.0,0.0
778711.0,0.0,2.0,1.0,2.0,494.0,15.0,3.0,2.0
778711.0,0.0,3.0,0.0,3.0,593.0,15.0,3.0,0.0
778711.0,0.0,1.0,1.0,1.0,883.0,16.0,3.0,0.0
778711.0,0.0,2.0,1.0,2.0,565.0,16.0,3.0,0.0
783311.0,0.0,1.0,1.0,1.0,655.0,1.0,0.0,0.0
783311.0,0.0,2.0,1.0,2.0,417.0,1.0,0.0,0.0
783311.0,0.0,3.0,1.0,3.0,395.0,1.0,0.0,0.0
783311.0,0.0,4.0,1.0,4.0,446.0,1.0,0.0,0.0
783311.0,0.0,5.0,1.0,5.0,344.0,1.0,0.0,1.0
783311.0,1.0,6.0,1.0,0.0,305.0,1.0,0.0,0.0
783311.0,0.0,1.0,1.0,1.0,560.0,2.0,5.0,0.0
783311.0,0.0,2.0,1.0,2.0,315.0,2.0,5.0,0.0
783311.0,0.0,3.0,1.0,3.0,408.0,2.0,5.0,0.0
783311.0,0.0,4.0,1.0,4.0,297.0,2.0,5.0,0.0
783311.0,0.0,5.0,1.0,5.0,472.0,2.0,5.0,2.0
783311.0,0.0,6.0,0.0,6.0,383.0,2.0,5.0,0.0
783311.0,0.0,1.0,1.0,1.0,621.0,3.0,3.0,0.0
783311.0,0.0,2.0,1.0,2.0,451.0,3.0,3.0,0.0
783311.0,0.0,3.0,1.0,3.0,374.0,3.0,3.0,0.0
783311.0,0.0,4.0,1.0,4.0,554.0,3.0,3.0,0.0
783311.0,0.0,5.0,1.0,5.0,315.0,3.0,3.0,2.0
783311.0,0.0,6.0,0.0,6.0,338.0,3.0,3.0,0.0
783311.0,0.0,1.0,1.0,1.0,770.0,4.0,3.0,0.0
783311.0,0.0,2.0,1.0,2.0,396.0,4.0,3.0,0.0
783311.0,0.0,3.0,1.0,3.0,498.0,4.0,3.0,0.0
783311.0,0.0,4.0,1.0,4.0,595.0,4.0,3.0,1.0
783311.0,1.0,5.0,1.0,0.0,1021.0,4.0,3.0,0.0
783311.0,0.0,1.0,1.0,1.0,1097.0,5.0,5.0,0.0
783311.0,0.0,2.0,1.0,2.0,582.0,5.0,5.0,0.0
783311.0,0.0,3.0,1.0,3.0,465.0,5.0,5.0,0.0
783311.0,0.0,4.0,1.0,4.0,356.0,5.0,5.0,2.0
783311.0,0.0,5.0,0.0,5.0,721.0,5.0,5.0,0.0
783311.0,0.0,1.0,1.0,1.0,738.0,6.0,3.0,0.0
783311.0,0.0,2.0,1.0,2.0,394.0,6.0,3.0,0.0
783311.0,0.0,3.0,1.0,3.0,420.0,6.0,3.0,0.0
783311.0,0.0,4.0,1.0,4.0,676.0,6.0,3.0,2.0
783311.0,0.0,5.0,0.0,5.0,420.0,6.0,3.0,0.0
783311.0,0.0,1.0,1.0,1.0,472.0,7.0,3.0,0.0
783311.0,0.0,2.0,1.0,2.0,297.0,7.0,3.0,0.0
783311.0,0.0,3.0,1.0,3.0,2939.0,7.0,3.0,2.0
783311.0,0.0,4.0,0.0,4.0,539.0,7.0,3.0,0.0
783311.0,0.0,1.0,1.0,1.0,2179.0,8.0,3.0,0.0
783311.0,0.0,2.0,1.0,2.0,490.0,8.0,3.0,0.0
783311.0,0.0,3.0,1.0,3.0,398.0,8.0,3.0,2.0
783311.0,0.0,4.0,0.0,4.0,378.0,8.0,3.0,0.0
783311.0,0.0,1.0,1.0,1.0,841.0,9.0,3.0,0.0
783311.0,0.0,2.0,1.0,2.0,742.0,9.0,3.0,0.0
783311.0,0.0,3.0,1.0,3.0,324.0,9.0,3.0,2.0
783311.0,0.0,4.0,0.0,4.0,332.0,9.0,3.0,0.0
783311.0,0.0,1.0,1.0,1.0,531.0,10.0,3.0,0.0
783311.0,0.0,2.0,1.0,2.0,419.0,10.0,3.0,0.0
783311.0,0.0,3.0,1.0,3.0,510.0,10.0,3.0,2.0
783311.0,0.0,4.0,0.0,4.0,1175.0,10.0,3.0,0.0
783311.0,0.0,1.0,1.0,1.0,668.0,11.0,3.0,0.0
783311.0,0.0,2.0,1.0,2.0,485.0,11.0,3.0,2.0
783311.0,0.0,3.0,0.0,3.0,505.0,11.0,3.0,0.0
783311.0,0.0,1.0,1.0,1.0,622.0,12.0,3.0,0.0
783311.0,0.0,2.0,1.0,2.0,546.0,12.0,3.0,1.0
783311.0,1.0,3.0,1.0,0.0,383.0,12.0,3.0,0.0
783311.0,0.0,1.0,1.0,1.0,1901.0,13.0,5.0,0.0
783311.0,1.0,2.0,1.0,0.0,525.0,13.0,5.0,0.0
783311.0,0.0,1.0,1.0,1.0,1203.0,14.0,5.0,0.0
783311.0,0.0,2.0,1.0,2.0,420.0,14.0,5.0,2.0
783311.0,0.0,3.0,0.0,3.0,368.0,14.0,5.0,0.0
783311.0,0.0,1.0,1.0,1.0,477.0,15.0,3.0,0.0
783311.0,0.0,2.0,1.0,2.0,487.0,15.0,3.0,2.0
783311.0,0.0,3.0,0.0,3.0,306.0,15.0,3.0,0.0
783311.0,0.0,1.0,1.0,1.0,454.0,16.0,3.0,0.0
783311.0,0.0,2.0,1.0,2.0,432.0,16.0,3.0,2.0
783311.0,0.0,3.0,0.0,3.0,261.0,16.0,3.0,0.0
783311.0,0.0,1.0,1.0,1.0,1261.0,17.0,3.0,0.0
783311.0,0.0,2.0,1.0,2.0,917.0,17.0,3.0,0.0
783311.0,0.0,3.0,1.0,3.0,480.0,17.0,3.0,0.0
783411.0,0.0,1.0,1.0,1.0,1546.0,1.0,0.0,0.0
783411.0,0.0,2.0,1.0,2.0,539.0,1.0,0.0,0.0
783411.0,0.0,3.0,1.0,3.0,759.0,1.0,0.0,0.0
783411.0,0.0,4.0,1.0,4.0,517.0,1.0,0.0,0.0
783411.0,0.0,5.0,1.0,5.0,452.0,1.0,0.0,0.0
783411.0,0.0,6.0,1.0,6.0,1195.0,1.0,0.0,1.0
783411.0,1.0,7.0,1.0,0.0,400.0,1.0,0.0,0.0
783411.0,0.0,1.0,1.0,1.0,454.0,2.0,5.0,0.0
783411.0,0.0,2.0,1.0,2.0,402.0,2.0,5.0,0.0
783411.0,0.0,3.0,1.0,3.0,589.0,2.0,5.0,0.0
783411.0,0.0,4.0,1.0,4.0,451.0,2.0,5.0,0.0
783411.0,0.0,5.0,1.0,5.0,487.0,2.0,5.0,0.0
783411.0,0.0,6.0,1.0,6.0,654.0,2.0,5.0,2.0
783411.0,0.0,7.0,0.0,7.0,986.0,2.0,5.0,0.0
783411.0,0.0,1.0,1.0,1.0,545.0,3.0,3.0,0.0
783411.0,0.0,2.0,1.0,2.0,442.0,3.0,3.0,0.0
783411.0,0.0,3.0,1.0,3.0,640.0,3.0,3.0,0.0
783411.0,0.0,4.0,1.0,4.0,479.0,3.0,3.0,0.0
783411.0,0.0,5.0,1.0,5.0,395.0,3.0,3.0,0.0
783411.0,0.0,6.0,1.0,6.0,610.0,3.0,3.0,2.0
783411.0,0.0,7.0,0.0,7.0,498.0,3.0,3.0,0.0
783411.0,0.0,1.0,1.0,1.0,1040.0,4.0,3.0,0.0
783411.0,0.0,2.0,1.0,2.0,536.0,4.0,3.0,0.0
783411.0,0.0,3.0,1.0,3.0,543.0,4.0,3.0,0.0
783411.0,0.0,4.0,1.0,4.0,523.0,4.0,3.0,0.0
783411.0,0.0,5.0,1.0,5.0,457.0,4.0,3.0,1.0
783411.0,1.0,6.0,1.0,0.0,377.0,4.0,3.0,0.0
783411.0,0.0,1.0,1.0,1.0,950.0,5.0,5.0,0.0
783411.0,0.0,2.0,1.0,2.0,916.0,5.0,5.0,0.0
783411.0,0.0,3.0,1.0,3.0,584.0,5.0,5.0,0.0
783411.0,0.0,4.0,1.0,4.0,492.0,5.0,5.0,0.0
783411.0,0.0,5.0,1.0,5.0,484.0,5.0,5.0,2.0
783411.0,0.0,6.0,0.0,6.0,483.0,5.0,5.0,0.0
783411.0,0.0,1.0,1.0,1.0,514.0,6.0,3.0,0.0
783411.0,0.0,2.0,1.0,2.0,581.0,6.0,3.0,0.0
783411.0,0.0,3.0,1.0,3.0,415.0,6.0,3.0,0.0
783411.0,0.0,4.0,1.0,4.0,409.0,6.0,3.0,2.0
783411.0,0.0,5.0,0.0,5.0,433.0,6.0,3.0,0.0
783411.0,0.0,1.0,1.0,1.0,700.0,7.0,3.0,0.0
783411.0,0.0,2.0,1.0,2.0,455.0,7.0,3.0,0.0
783411.0,0.0,3.0,1.0,3.0,408.0,7.0,3.0,0.0
783411.0,0.0,4.0,1.0,4.0,659.0,7.0,3.0,1.0
783411.0,1.0,5.0,1.0,0.0,402.0,7.0,3.0,0.0
783411.0,0.0,1.0,1.0,1.0,638.0,8.0,5.0,0.0
783411.0,0.0,2.0,1.0,2.0,499.0,8.0,5.0,0.0
783411.0,0.0,3.0,1.0,3.0,679.0,8.0,5.0,0.0
783411.0,0.0,4.0,1.0,4.0,730.0,8.0,5.0,2.0
783411.0,0.0,5.0,0.0,5.0,525.0,8.0,5.0,0.0
783411.0,0.0,1.0,1.0,1.0,477.0,9.0,3.0,0.0
783411.0,0.0,2.0,1.0,2.0,580.0,9.0,3.0,0.0
783411.0,0.0,3.0,1.0,3.0,565.0,9.0,3.0,0.0
783411.0,0.0,4.0,1.0,4.0,735.0,9.0,3.0,1.0
783411.0,1.0,5.0,1.0,0.0,424.0,9.0,3.0,0.0
783411.0,0.0,1.0,1.0,1.0,555.0,10.0,5.0,0.0
783411.0,0.0,2.0,1.0,2.0,453.0,10.0,5.0,0.0
783411.0,0.0,3.0,1.0,3.0,410.0,10.0,5.0,2.0
783411.0,0.0,4.0,0.0,4.0,489.0,10.0,5.0,0.0
783411.0,0.0,1.0,1.0,1.0,416.0,11.0,3.0,0.0
783411.0,0.0,2.0,1.0,2.0,447.0,11.0,3.0,2.0
783411.0,0.0,3.0,0.0,3.0,488.0,11.0,3.0,0.0
783411.0,0.0,1.0,1.0,1.0,404.0,12.0,3.0,0.0
783411.0,0.0,2.0,1.0,2.0,447.0,12.0,3.0,0.0
783411.0,0.0,3.0,1.0,3.0,393.0,12.0,3.0,2.0
783411.0,0.0,4.0,0.0,4.0,462.0,12.0,3.0,0.0
783411.0,0.0,1.0,1.0,1.0,571.0,13.0,3.0,0.0
783411.0,0.0,2.0,1.0,2.0,399.0,13.0,3.0,0.0
783411.0,0.0,3.0,1.0,3.0,420.0,13.0,3.0,2.0
783411.0,0.0,4.0,0.0,4.0,322.0,13.0,3.0,0.0
783411.0,0.0,1.0,1.0,1.0,823.0,14.0,3.0,0.0
783411.0,0.0,2.0,1.0,2.0,469.0,14.0,3.0,1.0
783411.0,1.0,3.0,1.0,0.0,309.0,14.0,3.0,0.0
783411.0,0.0,1.0,1.0,1.0,462.0,15.0,5.0,0.0
783411.0,0.0,2.0,0.0,2.0,401.0,15.0,5.0,0.0
783411.0,0.0,1.0,1.0,1.0,551.0,16.0,3.0,0.0
785811.0,0.0,1.0,1.0,1.0,629.0,1.0,0.0,0.0
785811.0,0.0,2.0,1.0,2.0,788.0,1.0,0.0,0.0
785811.0,0.0,3.0,1.0,3.0,619.0,1.0,0.0,0.0
785811.0,0.0,4.0,1.0,4.0,426.0,1.0,0.0,0.0
785811.0,0.0,5.0,1.0,5.0,584.0,1.0,0.0,0.0
785811.0,0.0,6.0,1.0,6.0,414.0,1.0,0.0,1.0
785811.0,1.0,7.0,1.0,0.0,396.0,1.0,0.0,0.0
785811.0,0.0,1.0,1.0,1.0,600.0,2.0,5.0,0.0
785811.0,0.0,2.0,1.0,2.0,540.0,2.0,5.0,0.0
785811.0,0.0,3.0,1.0,3.0,525.0,2.0,5.0,0.0
785811.0,0.0,4.0,1.0,4.0,514.0,2.0,5.0,0.0
785811.0,0.0,5.0,1.0,5.0,393.0,2.0,5.0,0.0
785811.0,0.0,6.0,1.0,6.0,343.0,2.0,5.0,2.0
785811.0,0.0,7.0,0.0,7.0,417.0,2.0,5.0,0.0
785811.0,0.0,1.0,1.0,1.0,497.0,3.0,3.0,0.0
785811.0,0.0,2.0,1.0,2.0,457.0,3.0,3.0,0.0
785811.0,0.0,3.0,1.0,3.0,589.0,3.0,3.0,0.0
785811.0,0.0,4.0,1.0,4.0,390.0,3.0,3.0,0.0
785811.0,0.0,5.0,1.0,5.0,476.0,3.0,3.0,2.0
785811.0,0.0,6.0,0.0,6.0,396.0,3.0,3.0,0.0
785811.0,0.0,1.0,1.0,1.0,570.0,4.0,3.0,0.0
785811.0,0.0,2.0,1.0,2.0,583.0,4.0,3.0,0.0
785811.0,0.0,3.0,1.0,3.0,323.0,4.0,3.0,0.0
785811.0,0.0,4.0,1.0,4.0,341.0,4.0,3.0,0.0
785811.0,0.0,5.0,1.0,5.0,442.0,4.0,3.0,2.0
785811.0,0.0,6.0,0.0,6.0,381.0,4.0,3.0,0.0
785811.0,0.0,1.0,1.0,1.0,533.0,5.0,3.0,0.0
785811.0,0.0,2.0,1.0,2.0,504.0,5.0,3.0,0.0
785811.0,0.0,3.0,1.0,3.0,366.0,5.0,3.0,0.0
785811.0,0.0,4.0,1.0,4.0,553.0,5.0,3.0,0.0
785811.0,0.0,5.0,1.0,5.0,424.0,5.0,3.0,2.0
785811.0,0.0,6.0,0.0,6.0,471.0,5.0,3.0,0.0
785811.0,0.0,1.0,1.0,1.0,414.0,6.0,3.0,0.0
785811.0,0.0,2.0,1.0,2.0,406.0,6.0,3.0,0.0
785811.0,0.0,3.0,1.0,3.0,447.0,6.0,3.0,0.0
785811.0,0.0,4.0,1.0,4.0,391.0,6.0,3.0,2.0
785811.0,0.0,5.0,0.0,5.0,1233.0,6.0,3.0,0.0
785811.0,0.0,1.0,1.0,1.0,404.0,7.0,3.0,0.0
785811.0,0.0,2.0,1.0,2.0,409.0,7.0,3.0,0.0
785811.0,0.0,3.0,1.0,3.0,762.0,7.0,3.0,0.0
785811.0,0.0,4.0,1.0,4.0,388.0,7.0,3.0,2.0
785811.0,0.0,5.0,0.0,5.0,478.0,7.0,3.0,0.0
785811.0,0.0,1.0,1.0,1.0,574.0,8.0,3.0,0.0
785811.0,0.0,2.0,1.0,2.0,409.0,8.0,3.0,0.0
785811.0,0.0,3.0,1.0,3.0,503.0,8.0,3.0,0.0
785811.0,0.0,4.0,1.0,4.0,428.0,8.0,3.0,2.0
785811.0,0.0,5.0,0.0,5.0,416.0,8.0,3.0,0.0
785811.0,0.0,1.0,1.0,1.0,408.0,9.0,3.0,0.0
785811.0,0.0,2.0,1.0,2.0,556.0,9.0,3.0,0.0
785811.0,0.0,3.0,1.0,3.0,558.0,9.0,3.0,0.0
785811.0,0.0,4.0,1.0,4.0,384.0,9.0,3.0,2.0
785811.0,0.0,5.0,0.0,5.0,725.0,9.0,3.0,0.0
785811.0,0.0,1.0,1.0,1.0,495.0,10.0,3.0,0.0
785811.0,0.0,2.0,1.0,2.0,561.0,10.0,3.0,0.0
785811.0,0.0,3.0,1.0,3.0,507.0,10.0,3.0,2.0
785811.0,0.0,4.0,0.0,4.0,154.0,10.0,3.0,0.0
785811.0,0.0,1.0,1.0,1.0,491.0,11.0,3.0,0.0
785811.0,0.0,2.0,1.0,2.0,534.0,11.0,3.0,0.0
785811.0,0.0,3.0,1.0,3.0,515.0,11.0,3.0,2.0
785811.0,0.0,4.0,0.0,4.0,543.0,11.0,3.0,0.0
785811.0,0.0,1.0,1.0,1.0,383.0,12.0,3.0,0.0
785811.0,0.0,2.0,1.0,2.0,443.0,12.0,3.0,0.0
785811.0,0.0,3.0,1.0,3.0,497.0,12.0,3.0,2.0
785811.0,0.0,4.0,0.0,4.0,500.0,12.0,3.0,0.0
785811.0,0.0,1.0,1.0,1.0,571.0,13.0,3.0,0.0
785811.0,0.0,2.0,1.0,2.0,410.0,13.0,3.0,2.0
785811.0,0.0,3.0,0.0,3.0,961.0,13.0,3.0,0.0
785811.0,0.0,1.0,1.0,1.0,417.0,14.0,3.0,0.0
785811.0,0.0,2.0,1.0,2.0,414.0,14.0,3.0,2.0
785811.0,0.0,3.0,0.0,3.0,463.0,14.0,3.0,0.0
785811.0,0.0,1.0,1.0,1.0,451.0,15.0,3.0,0.0
785811.0,1.0,2.0,1.0,0.0,547.0,15.0,3.0,0.0
785811.0,0.0,1.0,1.0,1.0,426.0,16.0,5.0,0.0
785811.0,0.0,2.0,1.0,2.0,496.0,16.0,5.0,0.0
787011.0,0.0,1.0,1.0,1.0,633.0,1.0,0.0,0.0
787011.0,0.0,2.0,1.0,2.0,627.0,1.0,0.0,0.0
787011.0,0.0,3.0,1.0,3.0,519.0,1.0,0.0,0.0
787011.0,0.0,4.0,1.0,4.0,350.0,1.0,0.0,0.0
787011.0,0.0,5.0,1.0,5.0,390.0,1.0,0.0,0.0
787011.0,0.0,6.0,1.0,6.0,605.0,1.0,0.0,1.0
787011.0,1.0,7.0,1.0,0.0,644.0,1.0,0.0,0.0
787011.0,0.0,1.0,1.0,1.0,459.0,2.0,5.0,0.0
787011.0,0.0,2.0,1.0,2.0,542.0,2.0,5.0,0.0
787011.0,0.0,3.0,1.0,3.0,322.0,2.0,5.0,0.0
787011.0,0.0,4.0,1.0,4.0,379.0,2.0,5.0,0.0
787011.0,0.0,5.0,1.0,5.0,378.0,2.0,5.0,1.0
787011.0,1.0,6.0,1.0,0.0,388.0,2.0,5.0,0.0
787011.0,0.0,1.0,1.0,1.0,106.0,3.0,5.0,0.0
787011.0,0.0,2.0,1.0,2.0,130.0,3.0,5.0,0.0
787011.0,0.0,3.0,1.0,3.0,345.0,3.0,5.0,0.0
787011.0,0.0,4.0,1.0,4.0,890.0,3.0,5.0,0.0
787011.0,0.0,5.0,1.0,5.0,812.0,3.0,5.0,2.0
787011.0,0.0,6.0,0.0,6.0,394.0,3.0,5.0,0.0
787011.0,0.0,1.0,1.0,1.0,1182.0,4.0,3.0,0.0
787011.0,0.0,2.0,1.0,2.0,276.0,4.0,3.0,0.0
787011.0,0.0,3.0,1.0,3.0,357.0,4.0,3.0,0.0
787011.0,0.0,4.0,1.0,4.0,400.0,4.0,3.0,0.0
787011.0,0.0,5.0,1.0,5.0,372.0,4.0,3.0,2.0
787011.0,0.0,6.0,0.0,6.0,850.0,4.0,3.0,0.0
787011.0,0.0,1.0,1.0,1.0,405.0,5.0,3.0,0.0
787011.0,0.0,2.0,1.0,2.0,160.0,5.0,3.0,0.0
787011.0,0.0,3.0,1.0,3.0,523.0,5.0,3.0,0.0
787011.0,0.0,4.0,1.0,4.0,1555.0,5.0,3.0,0.0
787011.0,0.0,5.0,1.0,5.0,2131.0,5.0,3.0,1.0
787011.0,1.0,6.0,1.0,0.0,1360.0,5.0,3.0,0.0
787011.0,0.0,1.0,1.0,1.0,452.0,6.0,5.0,0.0
787011.0,0.0,2.0,1.0,2.0,408.0,6.0,5.0,0.0
787011.0,0.0,3.0,1.0,3.0,561.0,6.0,5.0,0.0
787011.0,0.0,4.0,1.0,4.0,2846.0,6.0,5.0,0.0
787011.0,0.0,5.0,1.0,5.0,538.0,6.0,5.0,1.0
787011.0,1.0,6.0,1.0,0.0,465.0,6.0,5.0,0.0
787011.0,0.0,1.0,1.0,1.0,406.0,7.0,5.0,0.0
787011.0,0.0,2.0,1.0,2.0,184.0,7.0,5.0,0.0
787011.0,0.0,3.0,1.0,3.0,317.0,7.0,5.0,0.0
787011.0,0.0,4.0,1.0,4.0,1410.0,7.0,5.0,2.0
787011.0,0.0,5.0,0.0,5.0,412.0,7.0,5.0,0.0
787011.0,0.0,1.0,1.0,1.0,498.0,8.0,3.0,0.0
787011.0,0.0,2.0,1.0,2.0,473.0,8.0,3.0,0.0
787011.0,0.0,3.0,1.0,3.0,857.0,8.0,3.0,0.0
787011.0,0.0,4.0,1.0,4.0,523.0,8.0,3.0,0.0
787011.0,0.0,5.0,1.0,5.0,489.0,8.0,3.0,2.0
787011.0,0.0,6.0,0.0,6.0,539.0,8.0,3.0,0.0
787011.0,0.0,1.0,1.0,1.0,609.0,9.0,3.0,0.0
787011.0,0.0,2.0,1.0,2.0,314.0,9.0,3.0,0.0
787011.0,0.0,3.0,1.0,3.0,374.0,9.0,3.0,2.0
787011.0,0.0,4.0,0.0,4.0,604.0,9.0,3.0,0.0
787011.0,0.0,1.0,1.0,1.0,1093.0,10.0,3.0,0.0
787011.0,0.0,2.0,1.0,2.0,324.0,10.0,3.0,0.0
787011.0,0.0,3.0,1.0,3.0,520.0,10.0,3.0,0.0
787011.0,0.0,4.0,1.0,4.0,630.0,10.0,3.0,0.0
787011.0,0.0,5.0,1.0,5.0,488.0,10.0,3.0,2.0
787011.0,0.0,6.0,0.0,6.0,451.0,10.0,3.0,0.0
787011.0,0.0,1.0,1.0,1.0,764.0,11.0,3.0,0.0
787011.0,0.0,2.0,1.0,2.0,431.0,11.0,3.0,0.0
787011.0,0.0,3.0,1.0,3.0,460.0,11.0,3.0,0.0
787011.0,0.0,4.0,1.0,4.0,687.0,11.0,3.0,0.0
787011.0,0.0,5.0,1.0,5.0,640.0,11.0,3.0,2.0
787011.0,0.0,6.0,0.0,6.0,411.0,11.0,3.0,0.0
787011.0,0.0,1.0,1.0,1.0,1154.0,12.0,3.0,0.0
787011.0,0.0,2.0,1.0,2.0,486.0,12.0,3.0,0.0
787011.0,0.0,3.0,1.0,3.0,443.0,12.0,3.0,0.0
787011.0,0.0,4.0,1.0,4.0,365.0,12.0,3.0,2.0
787011.0,0.0,5.0,0.0,5.0,191.0,12.0,3.0,0.0
787011.0,0.0,1.0,1.0,1.0,485.0,13.0,3.0,0.0
787011.0,0.0,2.0,1.0,2.0,449.0,13.0,3.0,0.0
787011.0,0.0,3.0,1.0,3.0,167.0,13.0,3.0,2.0
787011.0,0.0,4.0,0.0,4.0,682.0,13.0,3.0,0.0
787011.0,0.0,1.0,1.0,1.0,2295.0,14.0,3.0,0.0
787011.0,0.0,2.0,1.0,2.0,642.0,14.0,3.0,0.0
787011.0,0.0,3.0,1.0,3.0,1256.0,14.0,3.0,0.0
787411.0,0.0,1.0,1.0,1.0,665.0,1.0,0.0,0.0
787411.0,0.0,2.0,1.0,2.0,631.0,1.0,0.0,0.0
787411.0,0.0,3.0,1.0,3.0,723.0,1.0,0.0,0.0
787411.0,0.0,4.0,1.0,4.0,512.0,1.0,0.0,0.0
787411.0,0.0,5.0,1.0,5.0,577.0,1.0,0.0,0.0
787411.0,0.0,6.0,1.0,6.0,558.0,1.0,0.0,2.0
787411.0,0.0,7.0,0.0,7.0,552.0,1.0,0.0,0.0
787411.0,0.0,1.0,1.0,1.0,564.0,2.0,3.0,0.0
787411.0,0.0,2.0,1.0,2.0,458.0,2.0,3.0,0.0
787411.0,0.0,3.0,1.0,3.0,530.0,2.0,3.0,0.0
787411.0,0.0,4.0,1.0,4.0,655.0,2.0,3.0,0.0
787411.0,0.0,5.0,1.0,5.0,734.0,2.0,3.0,0.0
787411.0,0.0,6.0,1.0,6.0,540.0,2.0,3.0,2.0
787411.0,0.0,7.0,0.0,7.0,677.0,2.0,3.0,0.0
787411.0,0.0,1.0,1.0,1.0,590.0,3.0,3.0,0.0
787411.0,0.0,2.0,1.0,2.0,632.0,3.0,3.0,0.0
787411.0,0.0,3.0,1.0,3.0,665.0,3.0,3.0,0.0
787411.0,0.0,4.0,1.0,4.0,985.0,3.0,3.0,0.0
787411.0,0.0,5.0,1.0,5.0,627.0,3.0,3.0,0.0
787411.0,0.0,6.0,1.0,6.0,383.0,3.0,3.0,2.0
787411.0,0.0,7.0,0.0,7.0,708.0,3.0,3.0,0.0
787411.0,0.0,1.0,1.0,1.0,773.0,4.0,3.0,0.0
787411.0,0.0,2.0,1.0,2.0,527.0,4.0,3.0,0.0
787411.0,0.0,3.0,1.0,3.0,599.0,4.0,3.0,0.0
787411.0,0.0,4.0,1.0,4.0,433.0,4.0,3.0,0.0
787411.0,0.0,5.0,1.0,5.0,761.0,4.0,3.0,2.0
787411.0,0.0,6.0,0.0,6.0,712.0,4.0,3.0,0.0
787411.0,0.0,1.0,1.0,1.0,682.0,5.0,3.0,0.0
787411.0,0.0,2.0,1.0,2.0,475.0,5.0,3.0,0.0
787411.0,0.0,3.0,1.0,3.0,528.0,5.0,3.0,0.0
787411.0,0.0,4.0,1.0,4.0,497.0,5.0,3.0,0.0
787411.0,0.0,5.0,1.0,5.0,647.0,5.0,3.0,2.0
787411.0,0.0,6.0,0.0,6.0,673.0,5.0,3.0,0.0
787411.0,0.0,1.0,1.0,1.0,837.0,6.0,3.0,0.0
787411.0,0.0,2.0,1.0,2.0,633.0,6.0,3.0,0.0
787411.0,0.0,3.0,1.0,3.0,874.0,6.0,3.0,0.0
787411.0,0.0,4.0,1.0,4.0,840.0,6.0,3.0,0.0
787411.0,0.0,5.0,1.0,5.0,625.0,6.0,3.0,1.0
787411.0,1.0,6.0,1.0,0.0,716.0,6.0,3.0,0.0
787411.0,0.0,1.0,1.0,1.0,1105.0,7.0,5.0,0.0
787411.0,0.0,2.0,1.0,2.0,1017.0,7.0,5.0,0.0
787411.0,0.0,3.0,1.0,3.0,956.0,7.0,5.0,0.0
787411.0,0.0,4.0,1.0,4.0,629.0,7.0,5.0,2.0
787411.0,0.0,5.0,0.0,5.0,887.0,7.0,5.0,0.0
787411.0,0.0,1.0,1.0,1.0,1046.0,8.0,3.0,0.0
787411.0,0.0,2.0,1.0,2.0,998.0,8.0,3.0,0.0
787411.0,0.0,3.0,1.0,3.0,999.0,8.0,3.0,0.0
787411.0,0.0,4.0,1.0,4.0,690.0,8.0,3.0,2.0
787411.0,0.0,5.0,0.0,5.0,498.0,8.0,3.0,0.0
787411.0,0.0,1.0,1.0,1.0,852.0,9.0,3.0,0.0
787411.0,0.0,2.0,1.0,2.0,621.0,9.0,3.0,0.0
787411.0,0.0,3.0,1.0,3.0,681.0,9.0,3.0,0.0
787411.0,0.0,4.0,1.0,4.0,775.0,9.0,3.0,2.0
787411.0,0.0,5.0,0.0,5.0,919.0,9.0,3.0,0.0
787411.0,0.0,1.0,1.0,1.0,718.0,10.0,3.0,0.0
787411.0,0.0,2.0,1.0,2.0,540.0,10.0,3.0,0.0
787411.0,0.0,3.0,1.0,3.0,629.0,10.0,3.0,0.0
787411.0,0.0,4.0,1.0,4.0,1269.0,10.0,3.0,2.0
787411.0,0.0,5.0,0.0,5.0,752.0,10.0,3.0,0.0
787411.0,0.0,1.0,1.0,1.0,641.0,11.0,3.0,0.0
787411.0,0.0,2.0,1.0,2.0,841.0,11.0,3.0,0.0
787411.0,0.0,3.0,1.0,3.0,824.0,11.0,3.0,2.0
787411.0,0.0,4.0,0.0,4.0,654.0,11.0,3.0,0.0
787411.0,0.0,1.0,1.0,1.0,1044.0,12.0,3.0,0.0
787411.0,0.0,2.0,1.0,2.0,949.0,12.0,3.0,0.0
787411.0,0.0,3.0,1.0,3.0,955.0,12.0,3.0,2.0
787411.0,0.0,4.0,0.0,4.0,1151.0,12.0,3.0,0.0
787411.0,0.0,1.0,1.0,1.0,769.0,13.0,3.0,0.0
787411.0,0.0,2.0,1.0,2.0,568.0,13.0,3.0,0.0
787411.0,0.0,3.0,1.0,3.0,619.0,13.0,3.0,1.0
787411.0,1.0,4.0,1.0,0.0,739.0,13.0,3.0,0.0
787411.0,0.0,1.0,1.0,1.0,771.0,14.0,5.0,0.0
787411.0,0.0,2.0,1.0,2.0,827.0,14.0,5.0,0.0
787411.0,0.0,3.0,1.0,3.0,927.0,14.0,5.0,0.0
787611.0,0.0,1.0,1.0,1.0,845.0,1.0,0.0,0.0
787611.0,0.0,2.0,1.0,2.0,952.0,1.0,0.0,0.0
787611.0,0.0,3.0,1.0,3.0,783.0,1.0,0.0,0.0
787611.0,0.0,4.0,1.0,4.0,2492.0,1.0,0.0,0.0
787611.0,0.0,5.0,1.0,5.0,1378.0,1.0,0.0,0.0
787611.0,0.0,6.0,1.0,6.0,842.0,1.0,0.0,2.0
787611.0,0.0,7.0,0.0,7.0,747.0,1.0,0.0,0.0
787611.0,0.0,1.0,1.0,1.0,1124.0,2.0,3.0,0.0
787611.0,0.0,2.0,1.0,2.0,713.0,2.0,3.0,0.0
787611.0,0.0,3.0,1.0,3.0,1685.0,2.0,3.0,0.0
787611.0,0.0,4.0,1.0,4.0,2423.0,2.0,3.0,0.0
787611.0,0.0,5.0,1.0,5.0,726.0,2.0,3.0,0.0
787611.0,0.0,6.0,1.0,6.0,682.0,2.0,3.0,2.0
787611.0,0.0,7.0,0.0,7.0,676.0,2.0,3.0,0.0
787611.0,0.0,1.0,1.0,1.0,552.0,3.0,3.0,0.0
787611.0,0.0,2.0,1.0,2.0,553.0,3.0,3.0,0.0
787611.0,0.0,3.0,1.0,3.0,472.0,3.0,3.0,0.0
787611.0,0.0,4.0,1.0,4.0,1006.0,3.0,3.0,0.0
787611.0,0.0,5.0,1.0,5.0,1182.0,3.0,3.0,2.0
787611.0,0.0,6.0,0.0,6.0,546.0,3.0,3.0,0.0
787611.0,0.0,1.0,1.0,1.0,724.0,4.0,3.0,0.0
787611.0,0.0,2.0,1.0,2.0,777.0,4.0,3.0,0.0
787611.0,0.0,3.0,1.0,3.0,986.0,4.0,3.0,0.0
787611.0,0.0,4.0,1.0,4.0,1082.0,4.0,3.0,0.0
787611.0,0.0,5.0,1.0,5.0,651.0,4.0,3.0,1.0
787611.0,1.0,6.0,1.0,0.0,985.0,4.0,3.0,0.0
787611.0,0.0,1.0,1.0,1.0,2045.0,5.0,5.0,0.0
787611.0,0.0,2.0,1.0,2.0,905.0,5.0,5.0,0.0
787611.0,0.0,3.0,1.0,3.0,1022.0,5.0,5.0,0.0
787611.0,0.0,4.0,1.0,4.0,1337.0,5.0,5.0,2.0
787611.0,0.0,5.0,0.0,5.0,2482.0,5.0,5.0,0.0
787611.0,0.0,1.0,1.0,1.0,1372.0,6.0,3.0,0.0
787611.0,0.0,2.0,1.0,2.0,833.0,6.0,3.0,0.0
787611.0,0.0,3.0,1.0,3.0,802.0,6.0,3.0,0.0
787611.0,0.0,4.0,1.0,4.0,1198.0,6.0,3.0,2.0
787611.0,0.0,5.0,0.0,5.0,943.0,6.0,3.0,0.0
787611.0,0.0,1.0,1.0,1.0,1011.0,7.0,3.0,0.0
787611.0,0.0,2.0,1.0,2.0,999.0,7.0,3.0,0.0
787611.0,0.0,3.0,1.0,3.0,491.0,7.0,3.0,0.0
787611.0,0.0,4.0,1.0,4.0,633.0,7.0,3.0,2.0
787611.0,0.0,5.0,0.0,5.0,1275.0,7.0,3.0,0.0
787611.0,0.0,1.0,1.0,1.0,795.0,8.0,3.0,0.0
787611.0,0.0,2.0,1.0,2.0,576.0,8.0,3.0,0.0
787611.0,0.0,3.0,1.0,3.0,746.0,8.0,3.0,0.0
787611.0,0.0,4.0,1.0,4.0,681.0,8.0,3.0,2.0
787611.0,0.0,5.0,0.0,5.0,1557.0,8.0,3.0,0.0
787611.0,0.0,1.0,1.0,1.0,882.0,9.0,3.0,0.0
787611.0,0.0,2.0,1.0,2.0,716.0,9.0,3.0,0.0
787611.0,0.0,3.0,1.0,3.0,883.0,9.0,3.0,0.0
787611.0,0.0,4.0,1.0,4.0,1607.0,9.0,3.0,2.0
787611.0,0.0,5.0,0.0,5.0,916.0,9.0,3.0,0.0
787611.0,0.0,1.0,1.0,1.0,830.0,10.0,3.0,0.0
787611.0,0.0,2.0,1.0,2.0,796.0,10.0,3.0,0.0
787611.0,0.0,3.0,1.0,3.0,464.0,10.0,3.0,0.0
787611.0,0.0,4.0,1.0,4.0,426.0,10.0,3.0,2.0
787611.0,0.0,5.0,0.0,5.0,1029.0,10.0,3.0,0.0
787611.0,0.0,1.0,1.0,1.0,717.0,11.0,3.0,0.0
787611.0,0.0,2.0,1.0,2.0,560.0,11.0,3.0,0.0
787611.0,0.0,3.0,1.0,3.0,989.0,11.0,3.0,2.0
787611.0,0.0,4.0,0.0,4.0,933.0,11.0,3.0,0.0
787611.0,0.0,1.0,1.0,1.0,686.0,12.0,3.0,0.0
787611.0,0.0,2.0,1.0,2.0,1053.0,12.0,3.0,0.0
787611.0,0.0,3.0,1.0,3.0,1394.0,12.0,3.0,1.0
787611.0,1.0,4.0,1.0,0.0,2573.0,12.0,3.0,0.0
787611.0,0.0,1.0,1.0,1.0,995.0,13.0,5.0,0.0
787611.0,0.0,2.0,0.0,2.0,943.0,13.0,5.0,0.0
787611.0,0.0,1.0,1.0,1.0,2284.0,14.0,3.0,0.0
787611.0,0.0,2.0,1.0,2.0,947.0,14.0,3.0,0.0
790011.0,0.0,1.0,1.0,1.0,583.0,1.0,0.0,0.0
790011.0,0.0,2.0,1.0,2.0,592.0,1.0,0.0,0.0
790011.0,0.0,3.0,1.0,3.0,497.0,1.0,0.0,0.0
790011.0,0.0,4.0,1.0,4.0,585.0,1.0,0.0,2.0
790011.0,0.0,5.0,0.0,5.0,556.0,1.0,0.0,0.0
790011.0,0.0,1.0,1.0,1.0,475.0,2.0,3.0,0.0
790011.0,0.0,2.0,1.0,2.0,446.0,2.0,3.0,0.0
790011.0,0.0,3.0,1.0,3.0,471.0,2.0,3.0,0.0
790011.0,0.0,4.0,1.0,4.0,922.0,2.0,3.0,2.0
790011.0,0.0,5.0,0.0,5.0,684.0,2.0,3.0,0.0
790011.0,0.0,1.0,1.0,1.0,708.0,3.0,3.0,0.0
790011.0,0.0,2.0,1.0,2.0,773.0,3.0,3.0,0.0
790011.0,0.0,3.0,1.0,3.0,655.0,3.0,3.0,0.0
790011.0,0.0,4.0,1.0,4.0,678.0,3.0,3.0,2.0
790011.0,0.0,5.0,0.0,5.0,737.0,3.0,3.0,0.0
790011.0,0.0,1.0,1.0,1.0,394.0,4.0,3.0,0.0
790011.0,0.0,2.0,1.0,2.0,2783.0,4.0,3.0,0.0
790011.0,0.0,3.0,1.0,3.0,866.0,4.0,3.0,0.0
790011.0,0.0,4.0,1.0,4.0,894.0,4.0,3.0,2.0
790011.0,0.0,5.0,0.0,5.0,1211.0,4.0,3.0,0.0
790011.0,0.0,1.0,1.0,1.0,580.0,5.0,3.0,0.0
790011.0,0.0,2.0,1.0,2.0,850.0,5.0,3.0,0.0
790011.0,0.0,3.0,1.0,3.0,443.0,5.0,3.0,2.0
790011.0,0.0,4.0,0.0,4.0,1373.0,5.0,3.0,0.0
790011.0,0.0,1.0,1.0,1.0,718.0,6.0,3.0,0.0
790011.0,0.0,2.0,1.0,2.0,776.0,6.0,3.0,0.0
790011.0,0.0,3.0,1.0,3.0,578.0,6.0,3.0,0.0
790011.0,0.0,4.0,1.0,4.0,605.0,6.0,3.0,2.0
790011.0,0.0,5.0,0.0,5.0,575.0,6.0,3.0,0.0
790011.0,0.0,1.0,1.0,1.0,483.0,7.0,3.0,0.0
790011.0,0.0,2.0,1.0,2.0,1562.0,7.0,3.0,0.0
790011.0,0.0,3.0,1.0,3.0,790.0,7.0,3.0,0.0
790011.0,0.0,4.0,1.0,4.0,792.0,7.0,3.0,2.0
790011.0,0.0,5.0,0.0,5.0,505.0,7.0,3.0,0.0
790011.0,0.0,1.0,1.0,1.0,671.0,8.0,3.0,0.0
790011.0,0.0,2.0,1.0,2.0,1271.0,8.0,3.0,0.0
790011.0,0.0,3.0,1.0,3.0,723.0,8.0,3.0,1.0
790011.0,1.0,4.0,1.0,0.0,1130.0,8.0,3.0,0.0
790011.0,0.0,1.0,1.0,1.0,662.0,9.0,5.0,0.0
790011.0,0.0,2.0,1.0,2.0,426.0,9.0,5.0,0.0
790011.0,0.0,3.0,1.0,3.0,833.0,9.0,5.0,2.0
790011.0,0.0,4.0,0.0,4.0,589.0,9.0,5.0,0.0
790011.0,0.0,1.0,1.0,1.0,556.0,10.0,3.0,0.0
790011.0,0.0,2.0,1.0,2.0,553.0,10.0,3.0,0.0
790011.0,0.0,3.0,1.0,3.0,910.0,10.0,3.0,2.0
790011.0,0.0,4.0,0.0,4.0,471.0,10.0,3.0,0.0
790011.0,0.0,1.0,1.0,1.0,919.0,11.0,3.0,0.0
790011.0,0.0,2.0,1.0,2.0,628.0,11.0,3.0,0.0
790011.0,0.0,3.0,1.0,3.0,550.0,11.0,3.0,2.0
790011.0,0.0,4.0,0.0,4.0,694.0,11.0,3.0,0.0
790011.0,0.0,1.0,1.0,1.0,1127.0,12.0,3.0,0.0
790011.0,0.0,2.0,1.0,2.0,1118.0,12.0,3.0,2.0
790011.0,0.0,3.0,0.0,3.0,722.0,12.0,3.0,0.0
790011.0,0.0,1.0,1.0,1.0,2426.0,13.0,3.0,0.0
790011.0,0.0,2.0,1.0,2.0,588.0,13.0,3.0,2.0
790011.0,0.0,3.0,0.0,3.0,957.0,13.0,3.0,0.0
790011.0,0.0,1.0,1.0,1.0,505.0,14.0,3.0,0.0
790011.0,0.0,2.0,0.0,2.0,552.0,14.0,3.0,0.0
790011.0,0.0,1.0,1.0,1.0,577.0,15.0,3.0,0.0
790011.0,1.0,2.0,1.0,0.0,631.0,15.0,3.0,0.0
790011.0,0.0,1.0,1.0,1.0,633.0,16.0,5.0,0.0
790011.0,0.0,2.0,1.0,2.0,2824.0,16.0,5.0,0.0
790111.0,0.0,1.0,1.0,1.0,455.0,1.0,0.0,0.0
790111.0,0.0,2.0,1.0,2.0,376.0,1.0,0.0,0.0
790111.0,0.0,3.0,1.0,3.0,361.0,1.0,0.0,0.0
790111.0,0.0,4.0,1.0,4.0,1093.0,1.0,0.0,0.0
790111.0,0.0,5.0,1.0,5.0,594.0,1.0,0.0,0.0
790111.0,0.0,6.0,1.0,6.0,820.0,1.0,0.0,1.0
790111.0,1.0,7.0,1.0,0.0,629.0,1.0,0.0,0.0
790111.0,0.0,1.0,1.0,1.0,690.0,2.0,5.0,0.0
790111.0,0.0,2.0,1.0,2.0,368.0,2.0,5.0,0.0
790111.0,0.0,3.0,1.0,3.0,917.0,2.0,5.0,0.0
790111.0,0.0,4.0,1.0,4.0,353.0,2.0,5.0,0.0
790111.0,0.0,5.0,1.0,5.0,203.0,2.0,5.0,2.0
790111.0,0.0,6.0,0.0,6.0,1948.0,2.0,5.0,0.0
790111.0,0.0,1.0,1.0,1.0,2188.0,3.0,3.0,0.0
790111.0,0.0,2.0,1.0,2.0,888.0,3.0,3.0,0.0
790111.0,0.0,3.0,1.0,3.0,1786.0,3.0,3.0,0.0
790111.0,0.0,4.0,1.0,4.0,828.0,3.0,3.0,2.0
790111.0,0.0,5.0,0.0,5.0,370.0,3.0,3.0,0.0
790111.0,0.0,1.0,1.0,1.0,1400.0,4.0,3.0,0.0
790111.0,0.0,2.0,1.0,2.0,714.0,4.0,3.0,0.0
790111.0,0.0,3.0,1.0,3.0,422.0,4.0,3.0,0.0
790111.0,0.0,4.0,1.0,4.0,972.0,4.0,3.0,0.0
790111.0,0.0,5.0,1.0,5.0,1338.0,4.0,3.0,2.0
790111.0,0.0,6.0,0.0,6.0,495.0,4.0,3.0,0.0
790111.0,0.0,1.0,1.0,1.0,1961.0,5.0,3.0,0.0
790111.0,0.0,2.0,1.0,2.0,511.0,5.0,3.0,0.0
790111.0,0.0,3.0,1.0,3.0,374.0,5.0,3.0,0.0
790111.0,0.0,4.0,1.0,4.0,981.0,5.0,3.0,0.0
790111.0,0.0,5.0,1.0,5.0,1046.0,5.0,3.0,1.0
790111.0,1.0,6.0,1.0,0.0,995.0,5.0,3.0,0.0
790111.0,0.0,1.0,1.0,1.0,1140.0,6.0,5.0,0.0
790111.0,0.0,2.0,1.0,2.0,407.0,6.0,5.0,0.0
790111.0,0.0,3.0,1.0,3.0,554.0,6.0,5.0,0.0
790111.0,0.0,4.0,1.0,4.0,697.0,6.0,5.0,0.0
790111.0,0.0,5.0,1.0,5.0,786.0,6.0,5.0,2.0
790111.0,0.0,6.0,0.0,6.0,2455.0,6.0,5.0,0.0
790111.0,0.0,1.0,1.0,1.0,1215.0,7.0,3.0,0.0
790111.0,0.0,2.0,1.0,2.0,331.0,7.0,3.0,0.0
790111.0,0.0,3.0,1.0,3.0,364.0,7.0,3.0,0.0
790111.0,0.0,4.0,1.0,4.0,416.0,7.0,3.0,1.0
790111.0,1.0,5.0,1.0,0.0,1729.0,7.0,3.0,0.0
790111.0,0.0,1.0,1.0,1.0,326.0,8.0,5.0,0.0
790111.0,0.0,2.0,1.0,2.0,355.0,8.0,5.0,0.0
790111.0,0.0,3.0,1.0,3.0,672.0,8.0,5.0,0.0
790111.0,0.0,4.0,1.0,4.0,394.0,8.0,5.0,1.0
790111.0,1.0,5.0,1.0,0.0,728.0,8.0,5.0,0.0
790111.0,0.0,1.0,1.0,1.0,1723.0,9.0,5.0,0.0
790111.0,0.0,2.0,1.0,2.0,567.0,9.0,5.0,0.0
790111.0,0.0,3.0,1.0,3.0,378.0,9.0,5.0,0.0
790111.0,0.0,4.0,1.0,4.0,678.0,9.0,5.0,2.0
790111.0,0.0,5.0,0.0,5.0,519.0,9.0,5.0,0.0
790111.0,0.0,1.0,1.0,1.0,2613.0,10.0,3.0,0.0
790111.0,0.0,2.0,1.0,2.0,1605.0,10.0,3.0,0.0
790111.0,0.0,3.0,1.0,3.0,694.0,10.0,3.0,0.0
790111.0,0.0,4.0,1.0,4.0,598.0,10.0,3.0,2.0
790111.0,0.0,5.0,0.0,5.0,961.0,10.0,3.0,0.0
790111.0,0.0,1.0,1.0,1.0,1021.0,11.0,3.0,0.0
790111.0,0.0,2.0,1.0,2.0,853.0,11.0,3.0,2.0
790111.0,0.0,3.0,0.0,3.0,933.0,11.0,3.0,0.0
790111.0,0.0,1.0,1.0,1.0,559.0,12.0,3.0,0.0
790111.0,0.0,2.0,1.0,2.0,507.0,12.0,3.0,0.0
790111.0,0.0,3.0,1.0,3.0,499.0,12.0,3.0,2.0
790111.0,0.0,4.0,0.0,4.0,1413.0,12.0,3.0,0.0
790111.0,0.0,1.0,0.0,1.0,561.0,13.0,3.0,0.0
790111.0,0.0,1.0,1.0,1.0,905.0,14.0,3.0,0.0
790211.0,0.0,1.0,1.0,1.0,815.0,1.0,0.0,0.0
790211.0,0.0,2.0,1.0,2.0,813.0,1.0,0.0,0.0
790211.0,0.0,3.0,1.0,3.0,625.0,1.0,0.0,0.0
790211.0,0.0,4.0,1.0,4.0,693.0,1.0,0.0,0.0
790211.0,0.0,5.0,1.0,5.0,487.0,1.0,0.0,2.0
790211.0,0.0,6.0,0.0,6.0,432.0,1.0,0.0,0.0
790211.0,0.0,1.0,1.0,1.0,121.0,2.0,3.0,0.0
790211.0,0.0,2.0,1.0,2.0,239.0,2.0,3.0,0.0
790211.0,0.0,3.0,1.0,3.0,622.0,2.0,3.0,0.0
790211.0,0.0,4.0,1.0,4.0,955.0,2.0,3.0,2.0
790211.0,0.0,5.0,0.0,5.0,637.0,2.0,3.0,0.0
790211.0,0.0,1.0,1.0,1.0,842.0,3.0,3.0,0.0
790211.0,0.0,2.0,1.0,2.0,305.0,3.0,3.0,0.0
790211.0,0.0,3.0,1.0,3.0,354.0,3.0,3.0,0.0
790211.0,0.0,4.0,1.0,4.0,417.0,3.0,3.0,2.0
790211.0,0.0,5.0,0.0,5.0,752.0,3.0,3.0,0.0
790211.0,0.0,1.0,1.0,1.0,256.0,4.0,3.0,0.0
790211.0,0.0,2.0,1.0,2.0,295.0,4.0,3.0,0.0
790211.0,0.0,3.0,1.0,3.0,906.0,4.0,3.0,0.0
790211.0,0.0,4.0,1.0,4.0,866.0,4.0,3.0,2.0
790211.0,0.0,5.0,0.0,5.0,929.0,4.0,3.0,0.0
790211.0,0.0,1.0,1.0,1.0,1036.0,5.0,3.0,0.0
790211.0,0.0,2.0,1.0,2.0,317.0,5.0,3.0,0.0
790211.0,0.0,3.0,1.0,3.0,416.0,5.0,3.0,0.0
790211.0,0.0,4.0,1.0,4.0,372.0,5.0,3.0,1.0
790211.0,1.0,5.0,1.0,0.0,309.0,5.0,3.0,0.0
790211.0,0.0,1.0,1.0,1.0,341.0,6.0,5.0,0.0
790211.0,0.0,2.0,1.0,2.0,327.0,6.0,5.0,0.0
790211.0,0.0,3.0,1.0,3.0,283.0,6.0,5.0,0.0
790211.0,0.0,4.0,1.0,4.0,475.0,6.0,5.0,1.0
790211.0,1.0,5.0,1.0,0.0,364.0,6.0,5.0,0.0
790211.0,0.0,1.0,1.0,1.0,617.0,7.0,5.0,0.0
790211.0,0.0,2.0,1.0,2.0,328.0,7.0,5.0,0.0
790211.0,0.0,3.0,1.0,3.0,286.0,7.0,5.0,0.0
790211.0,0.0,4.0,1.0,4.0,436.0,7.0,5.0,2.0
790211.0,0.0,5.0,0.0,5.0,334.0,7.0,5.0,0.0
790211.0,0.0,1.0,1.0,1.0,477.0,8.0,3.0,0.0
790211.0,0.0,2.0,1.0,2.0,329.0,8.0,3.0,0.0
790211.0,0.0,3.0,1.0,3.0,291.0,8.0,3.0,0.0
790211.0,0.0,4.0,1.0,4.0,345.0,8.0,3.0,2.0
790211.0,0.0,5.0,0.0,5.0,1032.0,8.0,3.0,0.0
790211.0,0.0,1.0,1.0,1.0,797.0,9.0,3.0,0.0
790211.0,0.0,2.0,1.0,2.0,761.0,9.0,3.0,0.0
790211.0,0.0,3.0,1.0,3.0,570.0,9.0,3.0,2.0
790211.0,0.0,4.0,0.0,4.0,435.0,9.0,3.0,0.0
790211.0,0.0,1.0,1.0,1.0,614.0,10.0,3.0,0.0
790211.0,0.0,2.0,1.0,2.0,589.0,10.0,3.0,0.0
790211.0,0.0,3.0,1.0,3.0,382.0,10.0,3.0,0.0
790211.0,0.0,4.0,1.0,4.0,376.0,10.0,3.0,2.0
790211.0,0.0,5.0,0.0,5.0,469.0,10.0,3.0,0.0
790211.0,0.0,1.0,1.0,1.0,2304.0,11.0,3.0,0.0
790211.0,0.0,2.0,1.0,2.0,616.0,11.0,3.0,0.0
790211.0,0.0,3.0,1.0,3.0,451.0,11.0,3.0,0.0
790211.0,0.0,4.0,1.0,4.0,395.0,11.0,3.0,2.0
790211.0,0.0,5.0,0.0,5.0,334.0,11.0,3.0,0.0
790211.0,0.0,1.0,1.0,1.0,742.0,12.0,3.0,0.0
790211.0,0.0,2.0,1.0,2.0,374.0,12.0,3.0,0.0
790211.0,0.0,3.0,1.0,3.0,382.0,12.0,3.0,0.0
790211.0,0.0,4.0,1.0,4.0,357.0,12.0,3.0,2.0
790211.0,0.0,5.0,0.0,5.0,455.0,12.0,3.0,0.0
790211.0,0.0,1.0,1.0,1.0,545.0,13.0,3.0,0.0
790211.0,0.0,2.0,1.0,2.0,679.0,13.0,3.0,0.0
790211.0,0.0,3.0,1.0,3.0,624.0,13.0,3.0,0.0
790211.0,0.0,4.0,1.0,4.0,461.0,13.0,3.0,2.0
790211.0,0.0,5.0,0.0,5.0,503.0,13.0,3.0,0.0
790211.0,0.0,1.0,1.0,1.0,672.0,14.0,3.0,0.0
790211.0,0.0,2.0,1.0,2.0,579.0,14.0,3.0,0.0
790211.0,0.0,3.0,1.0,3.0,585.0,14.0,3.0,0.0
790211.0,0.0,4.0,1.0,4.0,597.0,14.0,3.0,2.0
790211.0,0.0,5.0,0.0,5.0,394.0,14.0,3.0,0.0
790211.0,0.0,1.0,1.0,1.0,784.0,15.0,3.0,0.0
790211.0,0.0,2.0,1.0,2.0,271.0,15.0,3.0,0.0
790211.0,0.0,3.0,1.0,3.0,1134.0,15.0,3.0,0.0
790211.0,0.0,4.0,1.0,4.0,1296.0,15.0,3.0,0.0
790311.0,0.0,1.0,1.0,1.0,710.0,1.0,0.0,0.0
790311.0,0.0,2.0,1.0,2.0,536.0,1.0,0.0,0.0
790311.0,0.0,3.0,1.0,3.0,827.0,1.0,0.0,0.0
790311.0,0.0,4.0,1.0,4.0,408.0,1.0,0.0,0.0
790311.0,0.0,5.0,1.0,5.0,597.0,1.0,0.0,0.0
790311.0,0.0,6.0,1.0,6.0,433.0,1.0,0.0,2.0
790311.0,0.0,7.0,0.0,7.0,877.0,1.0,0.0,0.0
790311.0,0.0,1.0,1.0,1.0,689.0,2.0,3.0,0.0
790311.0,0.0,2.0,1.0,2.0,2360.0,2.0,3.0,0.0
790311.0,0.0,3.0,1.0,3.0,632.0,2.0,3.0,0.0
790311.0,0.0,4.0,1.0,4.0,512.0,2.0,3.0,0.0
790311.0,0.0,5.0,1.0,5.0,453.0,2.0,3.0,2.0
790311.0,0.0,6.0,0.0,6.0,1919.0,2.0,3.0,0.0
790311.0,0.0,1.0,1.0,1.0,474.0,3.0,3.0,0.0
790311.0,0.0,2.0,1.0,2.0,710.0,3.0,3.0,0.0
790311.0,0.0,3.0,1.0,3.0,342.0,3.0,3.0,0.0
790311.0,0.0,4.0,1.0,4.0,384.0,3.0,3.0,0.0
790311.0,0.0,5.0,1.0,5.0,501.0,3.0,3.0,2.0
790311.0,0.0,6.0,0.0,6.0,882.0,3.0,3.0,0.0
790311.0,0.0,1.0,1.0,1.0,648.0,4.0,3.0,0.0
790311.0,0.0,2.0,1.0,2.0,425.0,4.0,3.0,0.0
790311.0,0.0,3.0,1.0,3.0,630.0,4.0,3.0,0.0
790311.0,0.0,4.0,1.0,4.0,869.0,4.0,3.0,0.0
790311.0,0.0,5.0,1.0,5.0,753.0,4.0,3.0,2.0
790311.0,0.0,6.0,0.0,6.0,577.0,4.0,3.0,0.0
790311.0,0.0,1.0,1.0,1.0,798.0,5.0,3.0,0.0
790311.0,0.0,2.0,1.0,2.0,767.0,5.0,3.0,0.0
790311.0,0.0,3.0,1.0,3.0,873.0,5.0,3.0,0.0
790311.0,0.0,4.0,1.0,4.0,530.0,5.0,3.0,2.0
790311.0,0.0,5.0,0.0,5.0,545.0,5.0,3.0,0.0
790311.0,0.0,1.0,1.0,1.0,785.0,6.0,3.0,0.0
790311.0,0.0,2.0,1.0,2.0,393.0,6.0,3.0,0.0
790311.0,0.0,3.0,1.0,3.0,552.0,6.0,3.0,0.0
790311.0,0.0,4.0,1.0,4.0,373.0,6.0,3.0,0.0
790311.0,0.0,5.0,1.0,5.0,2558.0,6.0,3.0,2.0
790311.0,0.0,6.0,0.0,6.0,874.0,6.0,3.0,0.0
790311.0,0.0,1.0,1.0,1.0,926.0,7.0,3.0,0.0
790311.0,0.0,2.0,1.0,2.0,534.0,7.0,3.0,0.0
790311.0,0.0,3.0,1.0,3.0,346.0,7.0,3.0,0.0
790311.0,0.0,4.0,1.0,4.0,405.0,7.0,3.0,0.0
790311.0,0.0,5.0,1.0,5.0,582.0,7.0,3.0,2.0
790311.0,0.0,6.0,0.0,6.0,1173.0,7.0,3.0,0.0
790311.0,0.0,1.0,1.0,1.0,1443.0,8.0,3.0,0.0
790311.0,0.0,2.0,1.0,2.0,404.0,8.0,3.0,0.0
790311.0,0.0,3.0,1.0,3.0,347.0,8.0,3.0,2.0
790311.0,0.0,4.0,0.0,4.0,1239.0,8.0,3.0,0.0
790311.0,0.0,1.0,1.0,1.0,508.0,9.0,3.0,0.0
790311.0,0.0,2.0,1.0,2.0,403.0,9.0,3.0,0.0
790311.0,0.0,3.0,1.0,3.0,612.0,9.0,3.0,0.0
790311.0,0.0,4.0,1.0,4.0,834.0,9.0,3.0,0.0
790311.0,0.0,5.0,1.0,5.0,329.0,9.0,3.0,2.0
790311.0,0.0,6.0,0.0,6.0,489.0,9.0,3.0,0.0
790311.0,0.0,1.0,1.0,1.0,791.0,10.0,3.0,0.0
790311.0,0.0,2.0,1.0,2.0,604.0,10.0,3.0,0.0
790311.0,0.0,3.0,1.0,3.0,345.0,10.0,3.0,0.0
790311.0,0.0,4.0,1.0,4.0,436.0,10.0,3.0,0.0
790311.0,0.0,5.0,1.0,5.0,412.0,10.0,3.0,2.0
790311.0,0.0,6.0,0.0,6.0,616.0,10.0,3.0,0.0
790311.0,0.0,1.0,1.0,1.0,816.0,11.0,3.0,0.0
790311.0,0.0,2.0,1.0,2.0,516.0,11.0,3.0,0.0
790311.0,0.0,3.0,1.0,3.0,352.0,11.0,3.0,0.0
790311.0,0.0,4.0,1.0,4.0,701.0,11.0,3.0,1.0
790311.0,1.0,5.0,1.0,0.0,704.0,11.0,3.0,0.0
790311.0,0.0,1.0,1.0,1.0,388.0,12.0,5.0,0.0
790311.0,0.0,2.0,1.0,2.0,748.0,12.0,5.0,0.0
790311.0,0.0,3.0,1.0,3.0,383.0,12.0,5.0,2.0
790311.0,0.0,4.0,0.0,4.0,694.0,12.0,5.0,0.0
790311.0,0.0,1.0,1.0,1.0,569.0,13.0,3.0,0.0
790311.0,0.0,2.0,0.0,2.0,934.0,13.0,3.0,0.0
790311.0,0.0,1.0,0.0,1.0,520.0,14.0,3.0,0.0
790311.0,0.0,1.0,1.0,1.0,745.0,15.0,3.0,0.0
790411.0,0.0,1.0,1.0,1.0,1003.0,1.0,0.0,0.0
790411.0,0.0,2.0,1.0,2.0,886.0,1.0,0.0,0.0
790411.0,0.0,3.0,1.0,3.0,623.0,1.0,0.0,0.0
790411.0,0.0,4.0,1.0,4.0,724.0,1.0,0.0,0.0
790411.0,0.0,5.0,1.0,5.0,638.0,1.0,0.0,0.0
790411.0,0.0,6.0,1.0,6.0,505.0,1.0,0.0,0.0
790411.0,0.0,1.0,1.0,1.0,751.0,2.0,0.0,0.0
790411.0,0.0,2.0,1.0,2.0,974.0,2.0,0.0,0.0
790411.0,0.0,3.0,1.0,3.0,811.0,2.0,0.0,0.0
790411.0,0.0,4.0,1.0,4.0,589.0,2.0,0.0,0.0
790411.0,0.0,5.0,1.0,5.0,884.0,2.0,0.0,0.0
790411.0,0.0,6.0,1.0,6.0,505.0,2.0,0.0,2.0
790411.0,0.0,7.0,0.0,7.0,609.0,2.0,0.0,0.0
790411.0,0.0,1.0,1.0,1.0,803.0,3.0,3.0,0.0
790411.0,0.0,2.0,1.0,2.0,670.0,3.0,3.0,0.0
790411.0,0.0,3.0,1.0,3.0,693.0,3.0,3.0,0.0
790411.0,0.0,4.0,1.0,4.0,450.0,3.0,3.0,0.0
790411.0,0.0,5.0,1.0,5.0,635.0,3.0,3.0,0.0
790411.0,0.0,6.0,1.0,6.0,474.0,3.0,3.0,2.0
790411.0,0.0,7.0,0.0,7.0,2764.0,3.0,3.0,0.0
790411.0,0.0,1.0,1.0,1.0,777.0,4.0,3.0,0.0
790411.0,0.0,2.0,1.0,2.0,990.0,4.0,3.0,0.0
790411.0,0.0,3.0,1.0,3.0,742.0,4.0,3.0,0.0
790411.0,0.0,4.0,1.0,4.0,880.0,4.0,3.0,0.0
790411.0,0.0,5.0,1.0,5.0,1817.0,4.0,3.0,1.0
790411.0,1.0,6.0,1.0,0.0,918.0,4.0,3.0,0.0
790411.0,0.0,1.0,1.0,1.0,734.0,5.0,5.0,0.0
790411.0,0.0,2.0,1.0,2.0,755.0,5.0,5.0,0.0
790411.0,0.0,3.0,1.0,3.0,716.0,5.0,5.0,0.0
790411.0,0.0,4.0,1.0,4.0,847.0,5.0,5.0,0.0
790411.0,0.0,5.0,1.0,5.0,608.0,5.0,5.0,2.0
790411.0,0.0,6.0,0.0,6.0,1819.0,5.0,5.0,0.0
790411.0,0.0,1.0,1.0,1.0,804.0,6.0,3.0,0.0
790411.0,0.0,2.0,1.0,2.0,696.0,6.0,3.0,0.0
790411.0,0.0,3.0,1.0,3.0,673.0,6.0,3.0,0.0
790411.0,0.0,4.0,1.0,4.0,799.0,6.0,3.0,0.0
790411.0,0.0,5.0,1.0,5.0,504.0,6.0,3.0,1.0
790411.0,1.0,6.0,1.0,0.0,669.0,6.0,3.0,0.0
790411.0,0.0,1.0,1.0,1.0,739.0,7.0,5.0,0.0
790411.0,0.0,2.0,1.0,2.0,853.0,7.0,5.0,0.0
790411.0,0.0,3.0,1.0,3.0,710.0,7.0,5.0,0.0
790411.0,0.0,4.0,1.0,4.0,574.0,7.0,5.0,0.0
790411.0,0.0,5.0,1.0,5.0,514.0,7.0,5.0,2.0
790411.0,0.0,6.0,0.0,6.0,1899.0,7.0,5.0,0.0
790411.0,0.0,1.0,1.0,1.0,655.0,8.0,3.0,0.0
790411.0,0.0,2.0,1.0,2.0,823.0,8.0,3.0,0.0
790411.0,0.0,3.0,1.0,3.0,2359.0,8.0,3.0,0.0
790411.0,0.0,4.0,1.0,4.0,655.0,8.0,3.0,0.0
790411.0,0.0,5.0,1.0,5.0,594.0,8.0,3.0,2.0
790411.0,0.0,6.0,0.0,6.0,617.0,8.0,3.0,0.0
790411.0,0.0,1.0,1.0,1.0,867.0,9.0,3.0,0.0
790411.0,0.0,2.0,1.0,2.0,890.0,9.0,3.0,0.0
790411.0,0.0,3.0,1.0,3.0,720.0,9.0,3.0,0.0
790411.0,0.0,4.0,1.0,4.0,907.0,9.0,3.0,0.0
790411.0,0.0,5.0,1.0,5.0,665.0,9.0,3.0,2.0
790411.0,0.0,6.0,0.0,6.0,563.0,9.0,3.0,0.0
790411.0,0.0,1.0,1.0,1.0,829.0,10.0,3.0,0.0
790411.0,0.0,2.0,1.0,2.0,619.0,10.0,3.0,0.0
790411.0,0.0,3.0,1.0,3.0,934.0,10.0,3.0,0.0
790411.0,0.0,4.0,1.0,4.0,731.0,10.0,3.0,1.0
790411.0,1.0,5.0,1.0,0.0,605.0,10.0,3.0,0.0
790411.0,0.0,1.0,1.0,1.0,435.0,11.0,5.0,0.0
790411.0,0.0,2.0,1.0,2.0,676.0,11.0,5.0,0.0
790411.0,0.0,3.0,1.0,3.0,524.0,11.0,5.0,0.0
790411.0,0.0,4.0,1.0,4.0,690.0,11.0,5.0,2.0
790411.0,0.0,5.0,0.0,5.0,572.0,11.0,5.0,0.0
790411.0,0.0,1.0,1.0,1.0,954.0,12.0,3.0,0.0
790411.0,0.0,2.0,1.0,2.0,979.0,12.0,3.0,0.0
790411.0,0.0,3.0,1.0,3.0,1052.0,12.0,3.0,0.0
790411.0,0.0,4.0,1.0,4.0,441.0,12.0,3.0,1.0
790411.0,1.0,5.0,1.0,0.0,2134.0,12.0,3.0,0.0
790411.0,0.0,1.0,1.0,1.0,841.0,13.0,5.0,0.0
790411.0,0.0,2.0,1.0,2.0,680.0,13.0,5.0,0.0
790411.0,0.0,3.0,1.0,3.0,647.0,13.0,5.0,0.0
790411.0,0.0,4.0,1.0,4.0,1457.0,13.0,5.0,0.0
790511.0,0.0,1.0,1.0,1.0,474.0,1.0,0.0,0.0
790511.0,0.0,2.0,1.0,2.0,570.0,1.0,0.0,0.0
790511.0,0.0,3.0,1.0,3.0,350.0,1.0,0.0,0.0
790511.0,0.0,4.0,1.0,4.0,498.0,1.0,0.0,0.0
790511.0,0.0,5.0,1.0,5.0,362.0,1.0,0.0,0.0
790511.0,0.0,6.0,1.0,6.0,403.0,1.0,0.0,2.0
790511.0,0.0,7.0,0.0,7.0,285.0,1.0,0.0,0.0
790511.0,0.0,1.0,1.0,1.0,495.0,2.0,3.0,0.0
790511.0,0.0,2.0,1.0,2.0,312.0,2.0,3.0,0.0
790511.0,0.0,3.0,1.0,3.0,322.0,2.0,3.0,0.0
790511.0,0.0,4.0,1.0,4.0,298.0,2.0,3.0,0.0
790511.0,0.0,5.0,1.0,5.0,296.0,2.0,3.0,2.0
790511.0,0.0,6.0,0.0,6.0,254.0,2.0,3.0,0.0
790511.0,0.0,1.0,1.0,1.0,512.0,3.0,3.0,0.0
790511.0,0.0,2.0,1.0,2.0,556.0,3.0,3.0,0.0
790511.0,0.0,3.0,1.0,3.0,604.0,3.0,3.0,0.0
790511.0,0.0,4.0,1.0,4.0,399.0,3.0,3.0,0.0
790511.0,0.0,5.0,1.0,5.0,600.0,3.0,3.0,0.0
790511.0,0.0,6.0,1.0,6.0,317.0,3.0,3.0,2.0
790511.0,0.0,7.0,0.0,7.0,298.0,3.0,3.0,0.0
790511.0,0.0,1.0,1.0,1.0,478.0,4.0,3.0,0.0
790511.0,0.0,2.0,1.0,2.0,419.0,4.0,3.0,0.0
790511.0,0.0,3.0,1.0,3.0,421.0,4.0,3.0,0.0
790511.0,0.0,4.0,1.0,4.0,441.0,4.0,3.0,0.0
790511.0,0.0,5.0,1.0,5.0,332.0,4.0,3.0,1.0
790511.0,1.0,6.0,1.0,0.0,423.0,4.0,3.0,0.0
790511.0,0.0,1.0,1.0,1.0,599.0,5.0,5.0,0.0
790511.0,0.0,2.0,1.0,2.0,556.0,5.0,5.0,0.0
790511.0,0.0,3.0,1.0,3.0,667.0,5.0,5.0,0.0
790511.0,0.0,4.0,1.0,4.0,354.0,5.0,5.0,0.0
790511.0,0.0,5.0,1.0,5.0,455.0,5.0,5.0,2.0
790511.0,0.0,6.0,0.0,6.0,236.0,5.0,5.0,0.0
790511.0,0.0,1.0,1.0,1.0,607.0,6.0,3.0,0.0
790511.0,0.0,2.0,1.0,2.0,358.0,6.0,3.0,0.0
790511.0,0.0,3.0,1.0,3.0,320.0,6.0,3.0,0.0
790511.0,0.0,4.0,1.0,4.0,373.0,6.0,3.0,0.0
790511.0,0.0,5.0,1.0,5.0,337.0,6.0,3.0,2.0
790511.0,0.0,6.0,0.0,6.0,271.0,6.0,3.0,0.0
790511.0,0.0,1.0,1.0,1.0,450.0,7.0,3.0,0.0
790511.0,0.0,2.0,1.0,2.0,314.0,7.0,3.0,0.0
790511.0,0.0,3.0,1.0,3.0,240.0,7.0,3.0,0.0
790511.0,0.0,4.0,1.0,4.0,658.0,7.0,3.0,0.0
790511.0,0.0,5.0,1.0,5.0,353.0,7.0,3.0,2.0
790511.0,0.0,6.0,0.0,6.0,395.0,7.0,3.0,0.0
790511.0,0.0,1.0,1.0,1.0,563.0,8.0,3.0,0.0
790511.0,0.0,2.0,1.0,2.0,299.0,8.0,3.0,0.0
790511.0,0.0,3.0,1.0,3.0,277.0,8.0,3.0,0.0
790511.0,0.0,4.0,1.0,4.0,397.0,8.0,3.0,0.0
790511.0,0.0,5.0,1.0,5.0,344.0,8.0,3.0,2.0
790511.0,0.0,6.0,0.0,6.0,296.0,8.0,3.0,0.0
790511.0,0.0,1.0,1.0,1.0,450.0,9.0,3.0,0.0
790511.0,0.0,2.0,1.0,2.0,419.0,9.0,3.0,0.0
790511.0,0.0,3.0,1.0,3.0,341.0,9.0,3.0,2.0
790511.0,0.0,4.0,0.0,4.0,453.0,9.0,3.0,0.0
790511.0,0.0,1.0,1.0,1.0,480.0,10.0,3.0,0.0
790511.0,0.0,2.0,1.0,2.0,334.0,10.0,3.0,0.0
790511.0,0.0,3.0,1.0,3.0,333.0,10.0,3.0,0.0
790511.0,0.0,4.0,1.0,4.0,322.0,10.0,3.0,2.0
790511.0,0.0,5.0,0.0,5.0,314.0,10.0,3.0,0.0
790511.0,0.0,1.0,1.0,1.0,903.0,11.0,3.0,0.0
790511.0,0.0,2.0,1.0,2.0,396.0,11.0,3.0,0.0
790511.0,0.0,3.0,1.0,3.0,408.0,11.0,3.0,0.0
790511.0,0.0,4.0,1.0,4.0,367.0,11.0,3.0,1.0
790511.0,1.0,5.0,1.0,0.0,238.0,11.0,3.0,0.0
790511.0,0.0,1.0,1.0,1.0,590.0,12.0,5.0,0.0
790511.0,0.0,2.0,1.0,2.0,490.0,12.0,5.0,0.0
790511.0,0.0,3.0,1.0,3.0,299.0,12.0,5.0,0.0
790511.0,0.0,4.0,1.0,4.0,328.0,12.0,5.0,2.0
790511.0,0.0,5.0,0.0,5.0,318.0,12.0,5.0,0.0
790511.0,0.0,1.0,1.0,1.0,573.0,13.0,3.0,0.0
790511.0,0.0,2.0,1.0,2.0,525.0,13.0,3.0,0.0
790511.0,0.0,3.0,1.0,3.0,514.0,13.0,3.0,0.0
790511.0,0.0,4.0,1.0,4.0,409.0,13.0,3.0,2.0
790511.0,0.0,5.0,0.0,5.0,309.0,13.0,3.0,0.0
790511.0,0.0,1.0,1.0,1.0,578.0,14.0,3.0,0.0
790511.0,0.0,2.0,1.0,2.0,298.0,14.0,3.0,2.0
790511.0,0.0,3.0,0.0,3.0,333.0,14.0,3.0,0.0
790511.0,0.0,1.0,1.0,1.0,477.0,15.0,3.0,0.0
790611.0,0.0,1.0,1.0,1.0,746.0,1.0,0.0,0.0
790611.0,0.0,2.0,1.0,2.0,626.0,1.0,0.0,0.0
790611.0,0.0,3.0,1.0,3.0,1255.0,1.0,0.0,0.0
790611.0,0.0,4.0,1.0,4.0,866.0,1.0,0.0,0.0
790611.0,0.0,5.0,1.0,5.0,742.0,1.0,0.0,0.0
790611.0,0.0,6.0,1.0,6.0,1644.0,1.0,0.0,2.0
790611.0,0.0,7.0,0.0,7.0,2358.0,1.0,0.0,0.0
790611.0,0.0,1.0,1.0,1.0,289.0,2.0,3.0,0.0
790611.0,0.0,2.0,1.0,2.0,263.0,2.0,3.0,0.0
790611.0,0.0,3.0,1.0,3.0,1882.0,2.0,3.0,0.0
790611.0,0.0,4.0,1.0,4.0,932.0,2.0,3.0,1.0
790611.0,1.0,5.0,1.0,0.0,639.0,2.0,3.0,0.0
790611.0,0.0,1.0,1.0,1.0,723.0,3.0,5.0,0.0
790611.0,0.0,2.0,1.0,2.0,1131.0,3.0,5.0,0.0
790611.0,0.0,3.0,1.0,3.0,1135.0,3.0,5.0,2.0
790611.0,0.0,4.0,0.0,4.0,1100.0,3.0,5.0,0.0
790611.0,0.0,1.0,1.0,1.0,1396.0,4.0,3.0,0.0
790611.0,0.0,2.0,1.0,2.0,1903.0,4.0,3.0,0.0
790611.0,0.0,3.0,1.0,3.0,1105.0,4.0,3.0,0.0
790611.0,0.0,4.0,1.0,4.0,884.0,4.0,3.0,2.0
790611.0,0.0,5.0,0.0,5.0,2294.0,4.0,3.0,0.0
790611.0,0.0,1.0,1.0,1.0,786.0,5.0,3.0,0.0
790611.0,0.0,2.0,1.0,2.0,1097.0,5.0,3.0,0.0
790611.0,0.0,3.0,1.0,3.0,777.0,5.0,3.0,0.0
790611.0,0.0,4.0,1.0,4.0,1139.0,5.0,3.0,2.0
790611.0,0.0,5.0,0.0,5.0,525.0,5.0,3.0,0.0
790611.0,0.0,1.0,1.0,1.0,579.0,6.0,3.0,0.0
790611.0,0.0,2.0,1.0,2.0,1411.0,6.0,3.0,0.0
790611.0,0.0,3.0,1.0,3.0,897.0,6.0,3.0,0.0
790611.0,0.0,4.0,1.0,4.0,1785.0,6.0,3.0,1.0
790611.0,1.0,5.0,1.0,0.0,424.0,6.0,3.0,0.0
790611.0,0.0,1.0,1.0,1.0,797.0,7.0,5.0,0.0
790611.0,0.0,2.0,1.0,2.0,452.0,7.0,5.0,2.0
790611.0,0.0,3.0,0.0,3.0,1531.0,7.0,5.0,0.0
790611.0,0.0,1.0,1.0,1.0,875.0,8.0,3.0,0.0
790611.0,0.0,2.0,1.0,2.0,855.0,8.0,3.0,0.0
790611.0,0.0,3.0,1.0,3.0,691.0,8.0,3.0,2.0
790611.0,0.0,4.0,0.0,4.0,1409.0,8.0,3.0,0.0
790611.0,0.0,1.0,1.0,1.0,1170.0,9.0,3.0,0.0
790611.0,0.0,2.0,1.0,2.0,656.0,9.0,3.0,0.0
790611.0,0.0,3.0,1.0,3.0,612.0,9.0,3.0,1.0
790611.0,1.0,4.0,1.0,0.0,1767.0,9.0,3.0,0.0
790611.0,0.0,1.0,1.0,1.0,502.0,10.0,5.0,0.0
790611.0,0.0,2.0,1.0,2.0,955.0,10.0,5.0,0.0
790611.0,0.0,3.0,1.0,3.0,743.0,10.0,5.0,2.0
790611.0,0.0,4.0,0.0,4.0,614.0,10.0,5.0,0.0
790611.0,0.0,1.0,1.0,1.0,619.0,11.0,3.0,0.0
790611.0,1.0,2.0,1.0,0.0,483.0,11.0,3.0,0.0
790611.0,0.0,1.0,1.0,1.0,1070.0,12.0,5.0,0.0
790611.0,0.0,2.0,1.0,2.0,682.0,12.0,5.0,1.0
790611.0,1.0,3.0,1.0,0.0,1383.0,12.0,5.0,0.0
790611.0,0.0,1.0,1.0,1.0,556.0,13.0,5.0,0.0
790611.0,0.0,2.0,1.0,2.0,802.0,13.0,5.0,2.0
790611.0,0.0,3.0,0.0,3.0,636.0,13.0,5.0,0.0
790611.0,0.0,1.0,0.0,1.0,582.0,14.0,3.0,0.0
790611.0,0.0,1.0,1.0,1.0,144.0,15.0,3.0,0.0
790611.0,0.0,2.0,0.0,2.0,1498.0,15.0,3.0,0.0
790611.0,0.0,1.0,1.0,1.0,604.0,16.0,3.0,0.0
790611.0,0.0,2.0,1.0,2.0,1427.0,16.0,3.0,0.0
790711.0,0.0,1.0,1.0,1.0,697.0,1.0,0.0,0.0
790711.0,0.0,2.0,1.0,2.0,686.0,1.0,0.0,0.0
790711.0,0.0,3.0,1.0,3.0,603.0,1.0,0.0,0.0
790711.0,0.0,4.0,1.0,4.0,693.0,1.0,0.0,0.0
790711.0,0.0,5.0,1.0,5.0,703.0,1.0,0.0,2.0
790711.0,0.0,6.0,0.0,6.0,513.0,1.0,0.0,0.0
790711.0,0.0,1.0,1.0,1.0,730.0,2.0,3.0,0.0
790711.0,0.0,2.0,1.0,2.0,733.0,2.0,3.0,0.0
790711.0,0.0,3.0,1.0,3.0,571.0,2.0,3.0,0.0
790711.0,0.0,4.0,1.0,4.0,281.0,2.0,3.0,0.0
790711.0,0.0,5.0,1.0,5.0,340.0,2.0,3.0,2.0
790711.0,0.0,6.0,0.0,6.0,572.0,2.0,3.0,0.0
790711.0,0.0,1.0,1.0,1.0,712.0,3.0,3.0,0.0
790711.0,0.0,2.0,1.0,2.0,400.0,3.0,3.0,0.0
790711.0,0.0,3.0,1.0,3.0,311.0,3.0,3.0,0.0
790711.0,0.0,4.0,1.0,4.0,292.0,3.0,3.0,0.0
790711.0,0.0,5.0,1.0,5.0,618.0,3.0,3.0,2.0
790711.0,0.0,6.0,0.0,6.0,912.0,3.0,3.0,0.0
790711.0,0.0,1.0,1.0,1.0,570.0,4.0,3.0,0.0
790711.0,0.0,2.0,1.0,2.0,365.0,4.0,3.0,0.0
790711.0,0.0,3.0,1.0,3.0,479.0,4.0,3.0,0.0
790711.0,0.0,4.0,1.0,4.0,820.0,4.0,3.0,0.0
790711.0,0.0,5.0,1.0,5.0,687.0,4.0,3.0,2.0
790711.0,0.0,6.0,0.0,6.0,523.0,4.0,3.0,0.0
790711.0,0.0,1.0,1.0,1.0,620.0,5.0,3.0,0.0
790711.0,0.0,2.0,1.0,2.0,475.0,5.0,3.0,0.0
790711.0,0.0,3.0,1.0,3.0,635.0,5.0,3.0,0.0
790711.0,0.0,4.0,1.0,4.0,492.0,5.0,3.0,0.0
790711.0,0.0,5.0,1.0,5.0,998.0,5.0,3.0,1.0
790711.0,1.0,6.0,1.0,0.0,493.0,5.0,3.0,0.0
790711.0,0.0,1.0,1.0,1.0,445.0,6.0,5.0,0.0
790711.0,0.0,2.0,1.0,2.0,430.0,6.0,5.0,0.0
790711.0,0.0,3.0,1.0,3.0,537.0,6.0,5.0,0.0
790711.0,0.0,4.0,1.0,4.0,869.0,6.0,5.0,0.0
790711.0,0.0,5.0,1.0,5.0,867.0,6.0,5.0,2.0
790711.0,0.0,6.0,0.0,6.0,708.0,6.0,5.0,0.0
790711.0,0.0,1.0,1.0,1.0,789.0,7.0,3.0,0.0
790711.0,0.0,2.0,1.0,2.0,583.0,7.0,3.0,0.0
790711.0,0.0,3.0,1.0,3.0,528.0,7.0,3.0,0.0
790711.0,0.0,4.0,1.0,4.0,936.0,7.0,3.0,0.0
790711.0,0.0,5.0,1.0,5.0,697.0,7.0,3.0,2.0
790711.0,0.0,6.0,0.0,6.0,774.0,7.0,3.0,0.0
790711.0,0.0,1.0,1.0,1.0,510.0,8.0,3.0,0.0
790711.0,0.0,2.0,1.0,2.0,534.0,8.0,3.0,0.0
790711.0,0.0,3.0,1.0,3.0,516.0,8.0,3.0,0.0
790711.0,0.0,4.0,1.0,4.0,247.0,8.0,3.0,0.0
790711.0,0.0,5.0,1.0,5.0,401.0,8.0,3.0,1.0
790711.0,1.0,6.0,1.0,0.0,461.0,8.0,3.0,0.0
790711.0,0.0,1.0,1.0,1.0,555.0,9.0,5.0,0.0
790711.0,0.0,2.0,1.0,2.0,540.0,9.0,5.0,0.0
790711.0,0.0,3.0,1.0,3.0,477.0,9.0,5.0,0.0
790711.0,0.0,4.0,1.0,4.0,833.0,9.0,5.0,0.0
790711.0,0.0,5.0,1.0,5.0,1012.0,9.0,5.0,1.0
790711.0,1.0,6.0,1.0,0.0,542.0,9.0,5.0,0.0
790711.0,0.0,1.0,1.0,1.0,467.0,10.0,5.0,0.0
790711.0,0.0,2.0,1.0,2.0,677.0,10.0,5.0,0.0
790711.0,0.0,3.0,1.0,3.0,379.0,10.0,5.0,0.0
790711.0,0.0,4.0,1.0,4.0,414.0,10.0,5.0,0.0
790711.0,0.0,5.0,1.0,5.0,522.0,10.0,5.0,2.0
790711.0,0.0,6.0,0.0,6.0,399.0,10.0,5.0,0.0
790711.0,0.0,1.0,1.0,1.0,824.0,11.0,3.0,0.0
790711.0,0.0,2.0,1.0,2.0,673.0,11.0,3.0,0.0
790711.0,0.0,3.0,1.0,3.0,375.0,11.0,3.0,0.0
790711.0,0.0,4.0,1.0,4.0,592.0,11.0,3.0,0.0
790711.0,0.0,5.0,1.0,5.0,920.0,11.0,3.0,2.0
790711.0,0.0,6.0,0.0,6.0,636.0,11.0,3.0,0.0
790711.0,0.0,1.0,1.0,1.0,734.0,12.0,3.0,0.0
790711.0,0.0,2.0,1.0,2.0,623.0,12.0,3.0,0.0
790711.0,0.0,3.0,1.0,3.0,585.0,12.0,3.0,0.0
790711.0,0.0,4.0,1.0,4.0,1289.0,12.0,3.0,2.0
790711.0,0.0,5.0,0.0,5.0,433.0,12.0,3.0,0.0
790711.0,0.0,1.0,1.0,1.0,485.0,13.0,3.0,0.0
790711.0,0.0,2.0,1.0,2.0,457.0,13.0,3.0,0.0
790711.0,0.0,3.0,1.0,3.0,478.0,13.0,3.0,0.0
790711.0,0.0,4.0,1.0,4.0,465.0,13.0,3.0,2.0
790711.0,0.0,5.0,0.0,5.0,593.0,13.0,3.0,0.0
790711.0,0.0,1.0,1.0,1.0,723.0,14.0,3.0,0.0
790711.0,0.0,2.0,1.0,2.0,654.0,14.0,3.0,0.0
790711.0,0.0,3.0,1.0,3.0,1036.0,14.0,3.0,0.0
790711.0,0.0,4.0,1.0,4.0,496.0,14.0,3.0,0.0
790811.0,0.0,1.0,1.0,1.0,608.0,1.0,0.0,0.0
790811.0,0.0,2.0,1.0,2.0,387.0,1.0,0.0,0.0
790811.0,0.0,3.0,1.0,3.0,357.0,1.0,0.0,0.0
790811.0,0.0,4.0,1.0,4.0,810.0,1.0,0.0,0.0
790811.0,0.0,5.0,1.0,5.0,390.0,1.0,0.0,1.0
790811.0,1.0,6.0,1.0,0.0,382.0,1.0,0.0,0.0
790811.0,0.0,1.0,1.0,1.0,573.0,2.0,5.0,0.0
790811.0,0.0,2.0,1.0,2.0,343.0,2.0,5.0,0.0
790811.0,0.0,3.0,1.0,3.0,357.0,2.0,5.0,0.0
790811.0,0.0,4.0,1.0,4.0,545.0,2.0,5.0,2.0
790811.0,0.0,5.0,0.0,5.0,352.0,2.0,5.0,0.0
790811.0,0.0,1.0,1.0,1.0,580.0,3.0,3.0,0.0
790811.0,0.0,2.0,1.0,2.0,323.0,3.0,3.0,0.0
790811.0,0.0,3.0,1.0,3.0,591.0,3.0,3.0,0.0
790811.0,0.0,4.0,1.0,4.0,450.0,3.0,3.0,1.0
790811.0,1.0,5.0,1.0,0.0,352.0,3.0,3.0,0.0
790811.0,0.0,1.0,1.0,1.0,519.0,4.0,5.0,0.0
790811.0,0.0,2.0,1.0,2.0,402.0,4.0,5.0,0.0
790811.0,0.0,3.0,1.0,3.0,385.0,4.0,5.0,0.0
790811.0,0.0,4.0,1.0,4.0,359.0,4.0,5.0,1.0
790811.0,1.0,5.0,1.0,0.0,356.0,4.0,5.0,0.0
790811.0,0.0,1.0,1.0,1.0,444.0,5.0,5.0,0.0
790811.0,0.0,2.0,1.0,2.0,414.0,5.0,5.0,0.0
790811.0,0.0,3.0,1.0,3.0,315.0,5.0,5.0,0.0
790811.0,0.0,4.0,1.0,4.0,304.0,5.0,5.0,2.0
790811.0,0.0,5.0,0.0,5.0,341.0,5.0,5.0,0.0
790811.0,0.0,1.0,1.0,1.0,542.0,6.0,3.0,0.0
790811.0,0.0,2.0,1.0,2.0,554.0,6.0,3.0,0.0
790811.0,0.0,3.0,1.0,3.0,359.0,6.0,3.0,0.0
790811.0,0.0,4.0,1.0,4.0,340.0,6.0,3.0,2.0
790811.0,0.0,5.0,0.0,5.0,516.0,6.0,3.0,0.0
790811.0,0.0,1.0,1.0,1.0,635.0,7.0,3.0,0.0
790811.0,0.0,2.0,1.0,2.0,283.0,7.0,3.0,0.0
790811.0,0.0,3.0,1.0,3.0,289.0,7.0,3.0,0.0
790811.0,0.0,4.0,1.0,4.0,1126.0,7.0,3.0,2.0
790811.0,0.0,5.0,0.0,5.0,459.0,7.0,3.0,0.0
790811.0,0.0,1.0,1.0,1.0,682.0,8.0,3.0,0.0
790811.0,0.0,2.0,1.0,2.0,419.0,8.0,3.0,0.0
790811.0,0.0,3.0,1.0,3.0,364.0,8.0,3.0,0.0
790811.0,0.0,4.0,1.0,4.0,548.0,8.0,3.0,2.0
790811.0,0.0,5.0,0.0,5.0,308.0,8.0,3.0,0.0
790811.0,0.0,1.0,1.0,1.0,417.0,9.0,3.0,0.0
790811.0,0.0,2.0,1.0,2.0,334.0,9.0,3.0,0.0
790811.0,0.0,3.0,1.0,3.0,414.0,9.0,3.0,0.0
790811.0,0.0,4.0,1.0,4.0,656.0,9.0,3.0,2.0
790811.0,0.0,5.0,0.0,5.0,509.0,9.0,3.0,0.0
790811.0,0.0,1.0,1.0,1.0,751.0,10.0,3.0,0.0
790811.0,0.0,2.0,1.0,2.0,666.0,10.0,3.0,0.0
790811.0,0.0,3.0,1.0,3.0,1067.0,10.0,3.0,0.0
790811.0,0.0,4.0,1.0,4.0,379.0,10.0,3.0,2.0
790811.0,0.0,5.0,0.0,5.0,411.0,10.0,3.0,0.0
790811.0,0.0,1.0,1.0,1.0,371.0,11.0,3.0,0.0
790811.0,0.0,2.0,1.0,2.0,425.0,11.0,3.0,0.0
790811.0,0.0,3.0,1.0,3.0,1787.0,11.0,3.0,0.0
790811.0,0.0,4.0,1.0,4.0,903.0,11.0,3.0,2.0
790811.0,0.0,5.0,0.0,5.0,1087.0,11.0,3.0,0.0
790811.0,0.0,1.0,1.0,1.0,573.0,12.0,3.0,0.0
790811.0,0.0,2.0,1.0,2.0,397.0,12.0,3.0,0.0
790811.0,0.0,3.0,1.0,3.0,326.0,12.0,3.0,0.0
790811.0,0.0,4.0,1.0,4.0,569.0,12.0,3.0,1.0
790811.0,1.0,5.0,1.0,0.0,498.0,12.0,3.0,0.0
790811.0,0.0,1.0,1.0,1.0,404.0,13.0,5.0,0.0
790811.0,0.0,2.0,1.0,2.0,361.0,13.0,5.0,0.0
790811.0,0.0,3.0,1.0,3.0,649.0,13.0,5.0,0.0
790811.0,0.0,4.0,1.0,4.0,415.0,13.0,5.0,2.0
790811.0,0.0,5.0,0.0,5.0,364.0,13.0,5.0,0.0
790811.0,0.0,1.0,1.0,1.0,466.0,14.0,3.0,0.0
790811.0,0.0,2.0,1.0,2.0,396.0,14.0,3.0,0.0
790811.0,0.0,3.0,1.0,3.0,668.0,14.0,3.0,0.0
790811.0,0.0,4.0,1.0,4.0,631.0,14.0,3.0,2.0
790811.0,0.0,5.0,0.0,5.0,1205.0,14.0,3.0,0.0
790811.0,0.0,1.0,1.0,1.0,879.0,15.0,3.0,0.0
790811.0,0.0,2.0,1.0,2.0,472.0,15.0,3.0,0.0
790811.0,0.0,3.0,1.0,3.0,386.0,15.0,3.0,2.0
790811.0,0.0,4.0,0.0,4.0,315.0,15.0,3.0,0.0
790811.0,0.0,1.0,1.0,1.0,372.0,16.0,3.0,0.0
790811.0,0.0,2.0,1.0,2.0,153.0,16.0,3.0,0.0
790811.0,0.0,3.0,1.0,3.0,877.0,16.0,3.0,0.0
790911.0,0.0,1.0,1.0,1.0,564.0,1.0,0.0,0.0
790911.0,0.0,2.0,1.0,2.0,1261.0,1.0,0.0,0.0
790911.0,0.0,3.0,1.0,3.0,615.0,1.0,0.0,0.0
790911.0,0.0,4.0,1.0,4.0,871.0,1.0,0.0,0.0
790911.0,0.0,5.0,1.0,5.0,679.0,1.0,0.0,0.0
790911.0,0.0,6.0,1.0,6.0,771.0,1.0,0.0,2.0
790911.0,0.0,7.0,0.0,7.0,1468.0,1.0,0.0,0.0
790911.0,0.0,1.0,1.0,1.0,726.0,2.0,3.0,0.0
790911.0,0.0,2.0,1.0,2.0,528.0,2.0,3.0,0.0
790911.0,0.0,3.0,1.0,3.0,510.0,2.0,3.0,0.0
790911.0,0.0,4.0,1.0,4.0,648.0,2.0,3.0,0.0
790911.0,0.0,5.0,1.0,5.0,815.0,2.0,3.0,2.0
790911.0,0.0,6.0,0.0,6.0,788.0,2.0,3.0,0.0
790911.0,0.0,1.0,1.0,1.0,768.0,3.0,3.0,0.0
790911.0,0.0,2.0,1.0,2.0,576.0,3.0,3.0,0.0
790911.0,0.0,3.0,1.0,3.0,345.0,3.0,3.0,0.0
790911.0,0.0,4.0,1.0,4.0,788.0,3.0,3.0,0.0
790911.0,0.0,5.0,1.0,5.0,1242.0,3.0,3.0,2.0
790911.0,0.0,6.0,0.0,6.0,399.0,3.0,3.0,0.0
790911.0,0.0,1.0,1.0,1.0,864.0,4.0,3.0,0.0
790911.0,0.0,2.0,1.0,2.0,508.0,4.0,3.0,0.0
790911.0,0.0,3.0,1.0,3.0,1009.0,4.0,3.0,0.0
790911.0,0.0,4.0,1.0,4.0,920.0,4.0,3.0,0.0
790911.0,0.0,5.0,1.0,5.0,900.0,4.0,3.0,2.0
790911.0,0.0,6.0,0.0,6.0,735.0,4.0,3.0,0.0
790911.0,0.0,1.0,1.0,1.0,1325.0,5.0,3.0,0.0
790911.0,0.0,2.0,1.0,2.0,620.0,5.0,3.0,0.0
790911.0,0.0,3.0,1.0,3.0,438.0,5.0,3.0,0.0
790911.0,0.0,4.0,1.0,4.0,2540.0,5.0,3.0,0.0
790911.0,0.0,5.0,1.0,5.0,884.0,5.0,3.0,1.0
790911.0,1.0,6.0,1.0,0.0,2341.0,5.0,3.0,0.0
790911.0,0.0,1.0,1.0,1.0,747.0,6.0,5.0,0.0
790911.0,0.0,2.0,1.0,2.0,739.0,6.0,5.0,0.0
790911.0,0.0,3.0,1.0,3.0,523.0,6.0,5.0,0.0
790911.0,0.0,4.0,1.0,4.0,1131.0,6.0,5.0,2.0
790911.0,0.0,5.0,0.0,5.0,309.0,6.0,5.0,0.0
790911.0,0.0,1.0,1.0,1.0,789.0,7.0,3.0,0.0
790911.0,0.0,2.0,1.0,2.0,385.0,7.0,3.0,0.0
790911.0,0.0,3.0,1.0,3.0,532.0,7.0,3.0,0.0
790911.0,0.0,4.0,1.0,4.0,997.0,7.0,3.0,2.0
790911.0,0.0,5.0,0.0,5.0,815.0,7.0,3.0,0.0
790911.0,0.0,1.0,1.0,1.0,605.0,8.0,3.0,0.0
790911.0,0.0,2.0,1.0,2.0,509.0,8.0,3.0,0.0
790911.0,0.0,3.0,1.0,3.0,618.0,8.0,3.0,0.0
790911.0,0.0,4.0,1.0,4.0,787.0,8.0,3.0,1.0
790911.0,1.0,5.0,1.0,0.0,446.0,8.0,3.0,0.0
790911.0,0.0,1.0,1.0,1.0,1082.0,9.0,5.0,0.0
790911.0,0.0,2.0,1.0,2.0,416.0,9.0,5.0,0.0
790911.0,0.0,3.0,1.0,3.0,404.0,9.0,5.0,0.0
790911.0,0.0,4.0,1.0,4.0,886.0,9.0,5.0,2.0
790911.0,0.0,5.0,0.0,5.0,1599.0,9.0,5.0,0.0
790911.0,0.0,1.0,1.0,1.0,982.0,10.0,3.0,0.0
790911.0,0.0,2.0,1.0,2.0,665.0,10.0,3.0,0.0
790911.0,0.0,3.0,1.0,3.0,1076.0,10.0,3.0,0.0
790911.0,0.0,4.0,1.0,4.0,1510.0,10.0,3.0,2.0
790911.0,0.0,5.0,0.0,5.0,1441.0,10.0,3.0,0.0
790911.0,0.0,1.0,1.0,1.0,957.0,11.0,3.0,0.0
790911.0,0.0,2.0,1.0,2.0,555.0,11.0,3.0,2.0
790911.0,0.0,3.0,0.0,3.0,616.0,11.0,3.0,0.0
790911.0,0.0,1.0,1.0,1.0,1568.0,12.0,3.0,0.0
790911.0,0.0,2.0,1.0,2.0,573.0,12.0,3.0,1.0
790911.0,1.0,3.0,1.0,0.0,1549.0,12.0,3.0,0.0
790911.0,0.0,1.0,1.0,1.0,656.0,13.0,5.0,0.0
790911.0,0.0,2.0,1.0,2.0,177.0,13.0,5.0,2.0
790911.0,0.0,3.0,0.0,3.0,1078.0,13.0,5.0,0.0
790911.0,0.0,1.0,1.0,1.0,1343.0,14.0,3.0,0.0
790911.0,1.0,2.0,1.0,0.0,743.0,14.0,3.0,0.0
790911.0,0.0,1.0,1.0,1.0,710.0,15.0,5.0,0.0
790911.0,0.0,2.0,1.0,2.0,326.0,15.0,5.0,0.0
791011.0,0.0,1.0,1.0,1.0,558.0,1.0,0.0,0.0
791011.0,0.0,2.0,1.0,2.0,447.0,1.0,0.0,0.0
791011.0,0.0,3.0,1.0,3.0,375.0,1.0,0.0,0.0
791011.0,0.0,4.0,1.0,4.0,382.0,1.0,0.0,0.0
791011.0,0.0,5.0,1.0,5.0,419.0,1.0,0.0,0.0
791011.0,0.0,6.0,1.0,6.0,408.0,1.0,0.0,2.0
791011.0,0.0,7.0,0.0,7.0,708.0,1.0,0.0,0.0
791011.0,0.0,1.0,1.0,1.0,491.0,2.0,3.0,0.0
791011.0,0.0,2.0,1.0,2.0,373.0,2.0,3.0,0.0
791011.0,0.0,3.0,1.0,3.0,383.0,2.0,3.0,0.0
791011.0,0.0,4.0,1.0,4.0,401.0,2.0,3.0,0.0
791011.0,0.0,5.0,1.0,5.0,349.0,2.0,3.0,0.0
791011.0,0.0,6.0,1.0,6.0,408.0,2.0,3.0,2.0
791011.0,0.0,7.0,0.0,7.0,478.0,2.0,3.0,0.0
791011.0,0.0,1.0,1.0,1.0,629.0,3.0,3.0,0.0
791011.0,0.0,2.0,1.0,2.0,522.0,3.0,3.0,0.0
791011.0,0.0,3.0,1.0,3.0,422.0,3.0,3.0,0.0
791011.0,0.0,4.0,1.0,4.0,404.0,3.0,3.0,0.0
791011.0,0.0,5.0,1.0,5.0,416.0,3.0,3.0,1.0
791011.0,1.0,6.0,1.0,0.0,549.0,3.0,3.0,0.0
791011.0,0.0,1.0,1.0,1.0,421.0,4.0,5.0,0.0
791011.0,0.0,2.0,1.0,2.0,351.0,4.0,5.0,0.0
791011.0,0.0,3.0,1.0,3.0,427.0,4.0,5.0,0.0
791011.0,0.0,4.0,1.0,4.0,764.0,4.0,5.0,2.0
791011.0,0.0,5.0,0.0,5.0,424.0,4.0,5.0,0.0
791011.0,0.0,1.0,1.0,1.0,550.0,5.0,3.0,0.0
791011.0,0.0,2.0,1.0,2.0,451.0,5.0,3.0,0.0
791011.0,0.0,3.0,1.0,3.0,343.0,5.0,3.0,0.0
791011.0,0.0,4.0,1.0,4.0,409.0,5.0,3.0,2.0
791011.0,0.0,5.0,0.0,5.0,739.0,5.0,3.0,0.0
791011.0,0.0,1.0,1.0,1.0,630.0,6.0,3.0,0.0
791011.0,0.0,2.0,1.0,2.0,456.0,6.0,3.0,0.0
791011.0,0.0,3.0,1.0,3.0,484.0,6.0,3.0,0.0
791011.0,0.0,4.0,1.0,4.0,489.0,6.0,3.0,1.0
791011.0,1.0,5.0,1.0,0.0,837.0,6.0,3.0,0.0
791011.0,0.0,1.0,1.0,1.0,516.0,7.0,5.0,0.0
791011.0,0.0,2.0,1.0,2.0,403.0,7.0,5.0,0.0
791011.0,0.0,3.0,1.0,3.0,587.0,7.0,5.0,2.0
791011.0,0.0,4.0,0.0,4.0,691.0,7.0,5.0,0.0
791011.0,0.0,1.0,1.0,1.0,490.0,8.0,3.0,0.0
791011.0,0.0,2.0,1.0,2.0,498.0,8.0,3.0,0.0
791011.0,0.0,3.0,1.0,3.0,432.0,8.0,3.0,2.0
791011.0,0.0,4.0,0.0,4.0,477.0,8.0,3.0,0.0
791011.0,0.0,1.0,1.0,1.0,661.0,9.0,3.0,0.0
791011.0,0.0,2.0,1.0,2.0,389.0,9.0,3.0,0.0
791011.0,0.0,3.0,1.0,3.0,328.0,9.0,3.0,1.0
791011.0,1.0,4.0,1.0,0.0,562.0,9.0,3.0,0.0
791011.0,0.0,1.0,1.0,1.0,503.0,10.0,5.0,0.0
791011.0,0.0,2.0,1.0,2.0,507.0,10.0,5.0,0.0
791011.0,0.0,3.0,1.0,3.0,657.0,10.0,5.0,2.0
791011.0,0.0,4.0,0.0,4.0,549.0,10.0,5.0,0.0
791011.0,0.0,1.0,1.0,1.0,650.0,11.0,3.0,0.0
791011.0,0.0,2.0,1.0,2.0,449.0,11.0,3.0,2.0
791011.0,0.0,3.0,0.0,3.0,542.0,11.0,3.0,0.0
791011.0,0.0,1.0,1.0,1.0,659.0,12.0,3.0,0.0
791011.0,0.0,2.0,1.0,2.0,507.0,12.0,3.0,1.0
791011.0,1.0,3.0,1.0,0.0,510.0,12.0,3.0,0.0
791011.0,0.0,1.0,1.0,1.0,541.0,13.0,5.0,0.0
791011.0,0.0,2.0,1.0,2.0,462.0,13.0,5.0,2.0
791011.0,0.0,3.0,0.0,3.0,555.0,13.0,5.0,0.0
791011.0,0.0,1.0,1.0,1.0,696.0,14.0,3.0,0.0
791011.0,0.0,2.0,1.0,2.0,528.0,14.0,3.0,2.0
791011.0,0.0,3.0,0.0,3.0,505.0,14.0,3.0,0.0
791011.0,0.0,1.0,1.0,1.0,571.0,15.0,3.0,0.0
791011.0,0.0,2.0,1.0,2.0,449.0,15.0,3.0,2.0
791011.0,0.0,3.0,0.0,3.0,462.0,15.0,3.0,0.0
791011.0,0.0,1.0,1.0,1.0,625.0,16.0,3.0,0.0
791011.0,0.0,2.0,1.0,2.0,427.0,16.0,3.0,0.0
791011.0,0.0,3.0,1.0,3.0,603.0,16.0,3.0,0.0
791411.0,0.0,1.0,1.0,1.0,1134.0,1.0,0.0,0.0
791411.0,0.0,2.0,1.0,2.0,965.0,1.0,0.0,0.0
791411.0,0.0,3.0,1.0,3.0,1217.0,1.0,0.0,0.0
791411.0,0.0,4.0,1.0,4.0,943.0,1.0,0.0,0.0
791411.0,0.0,5.0,1.0,5.0,713.0,1.0,0.0,0.0
791411.0,0.0,6.0,1.0,6.0,794.0,1.0,0.0,1.0
791411.0,1.0,7.0,1.0,0.0,2291.0,1.0,0.0,0.0
791411.0,0.0,1.0,1.0,1.0,908.0,2.0,5.0,0.0
791411.0,0.0,2.0,1.0,2.0,1029.0,2.0,5.0,0.0
791411.0,0.0,3.0,1.0,3.0,1127.0,2.0,5.0,0.0
791411.0,0.0,4.0,1.0,4.0,857.0,2.0,5.0,0.0
791411.0,0.0,5.0,1.0,5.0,707.0,2.0,5.0,0.0
791411.0,0.0,6.0,1.0,6.0,714.0,2.0,5.0,2.0
791411.0,0.0,7.0,0.0,7.0,2016.0,2.0,5.0,0.0
791411.0,0.0,1.0,1.0,1.0,944.0,3.0,3.0,0.0
791411.0,0.0,2.0,1.0,2.0,899.0,3.0,3.0,0.0
791411.0,0.0,3.0,1.0,3.0,767.0,3.0,3.0,0.0
791411.0,0.0,4.0,1.0,4.0,765.0,3.0,3.0,0.0
791411.0,0.0,5.0,1.0,5.0,1012.0,3.0,3.0,2.0
791411.0,0.0,6.0,0.0,6.0,1276.0,3.0,3.0,0.0
791411.0,0.0,1.0,1.0,1.0,834.0,4.0,3.0,0.0
791411.0,0.0,2.0,1.0,2.0,1094.0,4.0,3.0,0.0
791411.0,0.0,3.0,1.0,3.0,996.0,4.0,3.0,0.0
791411.0,0.0,4.0,1.0,4.0,569.0,4.0,3.0,0.0
791411.0,0.0,5.0,1.0,5.0,540.0,4.0,3.0,1.0
791411.0,1.0,6.0,1.0,0.0,759.0,4.0,3.0,0.0
791411.0,0.0,1.0,1.0,1.0,469.0,5.0,5.0,0.0
791411.0,0.0,2.0,1.0,2.0,658.0,5.0,5.0,0.0
791411.0,0.0,3.0,1.0,3.0,885.0,5.0,5.0,0.0
791411.0,0.0,4.0,1.0,4.0,975.0,5.0,5.0,0.0
791411.0,0.0,5.0,1.0,5.0,595.0,5.0,5.0,2.0
791411.0,0.0,6.0,0.0,6.0,812.0,5.0,5.0,0.0
791411.0,0.0,1.0,1.0,1.0,766.0,6.0,3.0,0.0
791411.0,0.0,2.0,1.0,2.0,833.0,6.0,3.0,0.0
791411.0,0.0,3.0,1.0,3.0,483.0,6.0,3.0,0.0
791411.0,0.0,4.0,1.0,4.0,745.0,6.0,3.0,0.0
791411.0,0.0,5.0,1.0,5.0,877.0,6.0,3.0,1.0
791411.0,1.0,6.0,1.0,0.0,816.0,6.0,3.0,0.0
791411.0,0.0,1.0,1.0,1.0,690.0,7.0,5.0,0.0
791411.0,0.0,2.0,1.0,2.0,684.0,7.0,5.0,0.0
791411.0,0.0,3.0,1.0,3.0,577.0,7.0,5.0,0.0
791411.0,0.0,4.0,1.0,4.0,881.0,7.0,5.0,0.0
791411.0,0.0,5.0,1.0,5.0,730.0,7.0,5.0,2.0
791411.0,0.0,6.0,0.0,6.0,1081.0,7.0,5.0,0.0
791411.0,0.0,1.0,1.0,1.0,817.0,8.0,3.0,0.0
791411.0,0.0,2.0,1.0,2.0,749.0,8.0,3.0,0.0
791411.0,0.0,3.0,1.0,3.0,624.0,8.0,3.0,0.0
791411.0,0.0,4.0,1.0,4.0,718.0,8.0,3.0,2.0
791411.0,0.0,5.0,0.0,5.0,648.0,8.0,3.0,0.0
791411.0,0.0,1.0,1.0,1.0,1142.0,9.0,3.0,0.0
791411.0,0.0,2.0,1.0,2.0,496.0,9.0,3.0,0.0
791411.0,0.0,3.0,1.0,3.0,993.0,9.0,3.0,0.0
791411.0,0.0,4.0,1.0,4.0,663.0,9.0,3.0,1.0
791411.0,1.0,5.0,1.0,0.0,639.0,9.0,3.0,0.0
791411.0,0.0,1.0,1.0,1.0,736.0,10.0,5.0,0.0
791411.0,0.0,2.0,1.0,2.0,968.0,10.0,5.0,0.0
791411.0,0.0,3.0,1.0,3.0,557.0,10.0,5.0,0.0
791411.0,0.0,4.0,1.0,4.0,1027.0,10.0,5.0,2.0
791411.0,0.0,5.0,0.0,5.0,822.0,10.0,5.0,0.0
791411.0,0.0,1.0,1.0,1.0,1026.0,11.0,3.0,0.0
791411.0,0.0,2.0,1.0,2.0,543.0,11.0,3.0,0.0
791411.0,0.0,3.0,1.0,3.0,911.0,11.0,3.0,0.0
791411.0,0.0,4.0,1.0,4.0,532.0,11.0,3.0,2.0
791411.0,0.0,5.0,0.0,5.0,1331.0,11.0,3.0,0.0
791411.0,0.0,1.0,1.0,1.0,643.0,12.0,3.0,0.0
791411.0,0.0,2.0,1.0,2.0,752.0,12.0,3.0,0.0
791411.0,0.0,3.0,1.0,3.0,695.0,12.0,3.0,0.0
791411.0,0.0,4.0,1.0,4.0,648.0,12.0,3.0,1.0
791411.0,1.0,5.0,1.0,0.0,697.0,12.0,3.0,0.0
791411.0,0.0,1.0,1.0,1.0,900.0,13.0,5.0,0.0
791411.0,0.0,2.0,1.0,2.0,517.0,13.0,5.0,0.0
791411.0,0.0,3.0,1.0,3.0,526.0,13.0,5.0,0.0
791411.0,0.0,4.0,1.0,4.0,1425.0,13.0,5.0,2.0
791411.0,0.0,5.0,0.0,5.0,718.0,13.0,5.0,0.0
791411.0,0.0,1.0,1.0,1.0,742.0,14.0,3.0,0.0
791411.0,0.0,2.0,1.0,2.0,2151.0,14.0,3.0,0.0
791411.0,0.0,3.0,1.0,3.0,986.0,14.0,3.0,0.0
791511.0,0.0,1.0,1.0,1.0,1118.0,1.0,0.0,0.0
791511.0,0.0,2.0,1.0,2.0,502.0,1.0,0.0,0.0
791511.0,0.0,3.0,1.0,3.0,730.0,1.0,0.0,0.0
791511.0,0.0,4.0,1.0,4.0,552.0,1.0,0.0,0.0
791511.0,0.0,5.0,1.0,5.0,393.0,1.0,0.0,1.0
791511.0,1.0,6.0,1.0,0.0,839.0,1.0,0.0,0.0
791511.0,0.0,1.0,1.0,1.0,600.0,2.0,5.0,0.0
791511.0,0.0,2.0,1.0,2.0,516.0,2.0,5.0,0.0
791511.0,0.0,3.0,1.0,3.0,472.0,2.0,5.0,0.0
791511.0,0.0,4.0,1.0,4.0,423.0,2.0,5.0,2.0
791511.0,0.0,5.0,0.0,5.0,454.0,2.0,5.0,0.0
791511.0,0.0,1.0,1.0,1.0,701.0,3.0,3.0,0.0
791511.0,0.0,2.0,1.0,2.0,620.0,3.0,3.0,0.0
791511.0,0.0,3.0,1.0,3.0,2060.0,3.0,3.0,0.0
791511.0,0.0,4.0,1.0,4.0,467.0,3.0,3.0,2.0
791511.0,0.0,5.0,0.0,5.0,424.0,3.0,3.0,0.0
791511.0,0.0,1.0,1.0,1.0,1025.0,4.0,3.0,0.0
791511.0,0.0,2.0,1.0,2.0,903.0,4.0,3.0,0.0
791511.0,0.0,3.0,1.0,3.0,676.0,4.0,3.0,0.0
791511.0,0.0,4.0,1.0,4.0,620.0,4.0,3.0,1.0
791511.0,1.0,5.0,1.0,0.0,402.0,4.0,3.0,0.0
791511.0,0.0,1.0,1.0,1.0,989.0,5.0,5.0,0.0
791511.0,0.0,2.0,1.0,2.0,967.0,5.0,5.0,0.0
791511.0,0.0,3.0,1.0,3.0,868.0,5.0,5.0,0.0
791511.0,0.0,4.0,1.0,4.0,390.0,5.0,5.0,2.0
791511.0,0.0,5.0,0.0,5.0,496.0,5.0,5.0,0.0
791511.0,0.0,1.0,1.0,1.0,1021.0,6.0,3.0,0.0
791511.0,0.0,2.0,1.0,2.0,851.0,6.0,3.0,0.0
791511.0,0.0,3.0,1.0,3.0,1026.0,6.0,3.0,0.0
791511.0,0.0,4.0,1.0,4.0,897.0,6.0,3.0,2.0
791511.0,0.0,5.0,0.0,5.0,485.0,6.0,3.0,0.0
791511.0,0.0,1.0,1.0,1.0,645.0,7.0,3.0,0.0
791511.0,0.0,2.0,1.0,2.0,874.0,7.0,3.0,0.0
791511.0,0.0,3.0,1.0,3.0,712.0,7.0,3.0,0.0
791511.0,0.0,4.0,1.0,4.0,1150.0,7.0,3.0,1.0
791511.0,1.0,5.0,1.0,0.0,438.0,7.0,3.0,0.0
791511.0,0.0,1.0,1.0,1.0,696.0,8.0,5.0,0.0
791511.0,0.0,2.0,1.0,2.0,301.0,8.0,5.0,0.0
791511.0,0.0,3.0,1.0,3.0,551.0,8.0,5.0,0.0
791511.0,0.0,4.0,1.0,4.0,441.0,8.0,5.0,1.0
791511.0,1.0,5.0,1.0,0.0,322.0,8.0,5.0,0.0
791511.0,0.0,1.0,1.0,1.0,519.0,9.0,5.0,0.0
791511.0,0.0,2.0,1.0,2.0,368.0,9.0,5.0,0.0
791511.0,0.0,3.0,1.0,3.0,571.0,9.0,5.0,0.0
791511.0,0.0,4.0,1.0,4.0,384.0,9.0,5.0,2.0
791511.0,0.0,5.0,0.0,5.0,620.0,9.0,5.0,0.0
791511.0,0.0,1.0,1.0,1.0,733.0,10.0,3.0,0.0
791511.0,0.0,2.0,1.0,2.0,847.0,10.0,3.0,0.0
791511.0,0.0,3.0,1.0,3.0,470.0,10.0,3.0,0.0
791511.0,0.0,4.0,1.0,4.0,1349.0,10.0,3.0,2.0
791511.0,0.0,5.0,0.0,5.0,448.0,10.0,3.0,0.0
791511.0,0.0,1.0,1.0,1.0,1604.0,11.0,3.0,0.0
791511.0,0.0,2.0,1.0,2.0,547.0,11.0,3.0,0.0
791511.0,0.0,3.0,1.0,3.0,408.0,11.0,3.0,0.0
791511.0,0.0,4.0,1.0,4.0,694.0,11.0,3.0,2.0
791511.0,0.0,5.0,0.0,5.0,814.0,11.0,3.0,0.0
791511.0,0.0,1.0,1.0,1.0,429.0,12.0,3.0,0.0
791511.0,0.0,2.0,1.0,2.0,527.0,12.0,3.0,0.0
791511.0,0.0,3.0,1.0,3.0,911.0,12.0,3.0,0.0
791511.0,0.0,4.0,1.0,4.0,932.0,12.0,3.0,2.0
791511.0,0.0,5.0,0.0,5.0,642.0,12.0,3.0,0.0
791511.0,0.0,1.0,1.0,1.0,629.0,13.0,3.0,0.0
791511.0,0.0,2.0,1.0,2.0,347.0,13.0,3.0,0.0
791511.0,0.0,3.0,1.0,3.0,554.0,13.0,3.0,0.0
791511.0,0.0,4.0,1.0,4.0,1000.0,13.0,3.0,2.0
791511.0,0.0,5.0,0.0,5.0,347.0,13.0,3.0,0.0
791511.0,0.0,1.0,1.0,1.0,492.0,14.0,3.0,0.0
791511.0,0.0,2.0,1.0,2.0,451.0,14.0,3.0,0.0
791511.0,0.0,3.0,1.0,3.0,739.0,14.0,3.0,2.0
791511.0,0.0,4.0,0.0,4.0,1124.0,14.0,3.0,0.0
791511.0,0.0,1.0,1.0,1.0,657.0,15.0,3.0,0.0
791511.0,0.0,2.0,0.0,2.0,628.0,15.0,3.0,0.0
791511.0,0.0,1.0,1.0,1.0,1419.0,16.0,3.0,0.0
791511.0,0.0,2.0,1.0,2.0,491.0,16.0,3.0,0.0
791611.0,0.0,1.0,1.0,1.0,1139.0,1.0,0.0,0.0
791611.0,0.0,2.0,1.0,2.0,462.0,1.0,0.0,0.0
791611.0,0.0,3.0,1.0,3.0,448.0,1.0,0.0,0.0
791611.0,0.0,4.0,1.0,4.0,813.0,1.0,0.0,0.0
791611.0,0.0,5.0,1.0,5.0,627.0,1.0,0.0,0.0
791611.0,0.0,6.0,1.0,6.0,520.0,1.0,0.0,2.0
791611.0,0.0,7.0,0.0,7.0,336.0,1.0,0.0,0.0
791611.0,0.0,1.0,1.0,1.0,971.0,2.0,3.0,0.0
791611.0,0.0,2.0,1.0,2.0,277.0,2.0,3.0,0.0
791611.0,0.0,3.0,1.0,3.0,481.0,2.0,3.0,0.0
791611.0,0.0,4.0,1.0,4.0,632.0,2.0,3.0,0.0
791611.0,0.0,5.0,1.0,5.0,817.0,2.0,3.0,0.0
791611.0,0.0,6.0,1.0,6.0,1171.0,2.0,3.0,1.0
791611.0,1.0,7.0,1.0,0.0,1364.0,2.0,3.0,0.0
791611.0,0.0,1.0,1.0,1.0,1450.0,3.0,5.0,0.0
791611.0,0.0,2.0,1.0,2.0,310.0,3.0,5.0,0.0
791611.0,0.0,3.0,1.0,3.0,609.0,3.0,5.0,0.0
791611.0,0.0,4.0,1.0,4.0,378.0,3.0,5.0,0.0
791611.0,0.0,5.0,1.0,5.0,455.0,3.0,5.0,0.0
791611.0,0.0,6.0,1.0,6.0,356.0,3.0,5.0,2.0
791611.0,0.0,7.0,0.0,7.0,438.0,3.0,5.0,0.0
791611.0,0.0,1.0,1.0,1.0,1375.0,4.0,3.0,0.0
791611.0,0.0,2.0,1.0,2.0,761.0,4.0,3.0,0.0
791611.0,0.0,3.0,1.0,3.0,762.0,4.0,3.0,0.0
791611.0,0.0,4.0,1.0,4.0,891.0,4.0,3.0,0.0
791611.0,0.0,5.0,1.0,5.0,399.0,4.0,3.0,0.0
791611.0,0.0,6.0,1.0,6.0,402.0,4.0,3.0,1.0
791611.0,1.0,7.0,1.0,0.0,150.0,4.0,3.0,0.0
791611.0,0.0,1.0,1.0,1.0,357.0,5.0,5.0,0.0
791611.0,0.0,2.0,1.0,2.0,256.0,5.0,5.0,0.0
791611.0,0.0,3.0,1.0,3.0,205.0,5.0,5.0,0.0
791611.0,0.0,4.0,1.0,4.0,251.0,5.0,5.0,0.0
791611.0,0.0,5.0,1.0,5.0,367.0,5.0,5.0,1.0
791611.0,1.0,6.0,1.0,0.0,507.0,5.0,5.0,0.0
791611.0,0.0,1.0,1.0,1.0,114.0,6.0,5.0,0.0
791611.0,0.0,2.0,1.0,2.0,192.0,6.0,5.0,0.0
791611.0,0.0,3.0,1.0,3.0,274.0,6.0,5.0,0.0
791611.0,0.0,4.0,1.0,4.0,190.0,6.0,5.0,2.0
791611.0,0.0,5.0,0.0,5.0,594.0,6.0,5.0,0.0
791611.0,0.0,1.0,1.0,1.0,1340.0,7.0,3.0,0.0
791611.0,0.0,2.0,1.0,2.0,430.0,7.0,3.0,0.0
791611.0,0.0,3.0,1.0,3.0,295.0,7.0,3.0,2.0
791611.0,0.0,4.0,0.0,4.0,801.0,7.0,3.0,0.0
791611.0,0.0,1.0,1.0,1.0,407.0,8.0,3.0,0.0
791611.0,0.0,2.0,1.0,2.0,360.0,8.0,3.0,0.0
791611.0,0.0,3.0,1.0,3.0,316.0,8.0,3.0,1.0
791611.0,1.0,4.0,1.0,0.0,119.0,8.0,3.0,0.0
791611.0,0.0,1.0,1.0,1.0,198.0,9.0,5.0,0.0
791611.0,0.0,2.0,1.0,2.0,314.0,9.0,5.0,0.0
791611.0,0.0,3.0,1.0,3.0,209.0,9.0,5.0,1.0
791611.0,1.0,4.0,1.0,0.0,106.0,9.0,5.0,0.0
791611.0,0.0,1.0,1.0,1.0,335.0,10.0,5.0,0.0
791611.0,0.0,2.0,1.0,2.0,207.0,10.0,5.0,0.0
791611.0,0.0,3.0,1.0,3.0,181.0,10.0,5.0,1.0
791611.0,1.0,4.0,1.0,0.0,249.0,10.0,5.0,0.0
791611.0,0.0,1.0,1.0,1.0,489.0,11.0,5.0,0.0
791611.0,0.0,2.0,1.0,2.0,215.0,11.0,5.0,2.0
791611.0,0.0,3.0,0.0,3.0,146.0,11.0,5.0,0.0
791611.0,0.0,1.0,1.0,1.0,183.0,12.0,3.0,0.0
791611.0,0.0,2.0,1.0,2.0,475.0,12.0,3.0,1.0
791611.0,1.0,3.0,1.0,0.0,203.0,12.0,3.0,0.0
791611.0,0.0,1.0,1.0,1.0,332.0,13.0,5.0,0.0
791611.0,0.0,2.0,1.0,2.0,446.0,13.0,5.0,2.0
791611.0,0.0,3.0,0.0,3.0,159.0,13.0,5.0,0.0
791611.0,0.0,1.0,1.0,1.0,1555.0,14.0,3.0,0.0
791811.0,0.0,1.0,1.0,1.0,758.0,1.0,0.0,0.0
791811.0,0.0,2.0,1.0,2.0,564.0,1.0,0.0,0.0
791811.0,0.0,3.0,1.0,3.0,912.0,1.0,0.0,0.0
791811.0,0.0,4.0,1.0,4.0,714.0,1.0,0.0,0.0
791811.0,0.0,5.0,1.0,5.0,2273.0,1.0,0.0,0.0
791811.0,0.0,6.0,1.0,6.0,620.0,1.0,0.0,2.0
791811.0,0.0,7.0,0.0,7.0,571.0,1.0,0.0,0.0
791811.0,0.0,1.0,1.0,1.0,625.0,2.0,3.0,0.0
791811.0,0.0,2.0,1.0,2.0,388.0,2.0,3.0,0.0
791811.0,0.0,3.0,1.0,3.0,444.0,2.0,3.0,0.0
791811.0,0.0,4.0,1.0,4.0,425.0,2.0,3.0,0.0
791811.0,0.0,5.0,1.0,5.0,467.0,2.0,3.0,1.0
791811.0,1.0,6.0,1.0,0.0,556.0,2.0,3.0,0.0
791811.0,0.0,1.0,1.0,1.0,534.0,3.0,5.0,0.0
791811.0,0.0,2.0,1.0,2.0,487.0,3.0,5.0,0.0
791811.0,0.0,3.0,1.0,3.0,472.0,3.0,5.0,0.0
791811.0,0.0,4.0,1.0,4.0,427.0,3.0,5.0,0.0
791811.0,0.0,5.0,1.0,5.0,492.0,3.0,5.0,2.0
791811.0,0.0,6.0,0.0,6.0,641.0,3.0,5.0,0.0
791811.0,0.0,1.0,1.0,1.0,627.0,4.0,3.0,0.0
791811.0,0.0,2.0,1.0,2.0,396.0,4.0,3.0,0.0
791811.0,0.0,3.0,1.0,3.0,476.0,4.0,3.0,0.0
791811.0,0.0,4.0,1.0,4.0,500.0,4.0,3.0,0.0
791811.0,0.0,5.0,1.0,5.0,518.0,4.0,3.0,2.0
791811.0,0.0,6.0,0.0,6.0,1092.0,4.0,3.0,0.0
791811.0,0.0,1.0,1.0,1.0,576.0,5.0,3.0,0.0
791811.0,0.0,2.0,1.0,2.0,558.0,5.0,3.0,0.0
791811.0,0.0,3.0,1.0,3.0,385.0,5.0,3.0,0.0
791811.0,0.0,4.0,1.0,4.0,760.0,5.0,3.0,0.0
791811.0,0.0,5.0,1.0,5.0,986.0,5.0,3.0,2.0
791811.0,0.0,6.0,0.0,6.0,538.0,5.0,3.0,0.0
791811.0,0.0,1.0,1.0,1.0,623.0,6.0,3.0,0.0
791811.0,0.0,2.0,1.0,2.0,453.0,6.0,3.0,0.0
791811.0,0.0,3.0,1.0,3.0,474.0,6.0,3.0,0.0
791811.0,0.0,4.0,1.0,4.0,461.0,6.0,3.0,0.0
791811.0,0.0,5.0,1.0,5.0,950.0,6.0,3.0,2.0
791811.0,0.0,6.0,0.0,6.0,587.0,6.0,3.0,0.0
791811.0,0.0,1.0,1.0,1.0,740.0,7.0,3.0,0.0
791811.0,0.0,2.0,1.0,2.0,528.0,7.0,3.0,0.0
791811.0,0.0,3.0,1.0,3.0,477.0,7.0,3.0,0.0
791811.0,0.0,4.0,1.0,4.0,659.0,7.0,3.0,2.0
791811.0,0.0,5.0,0.0,5.0,791.0,7.0,3.0,0.0
791811.0,0.0,1.0,1.0,1.0,517.0,8.0,3.0,0.0
791811.0,0.0,2.0,1.0,2.0,747.0,8.0,3.0,0.0
791811.0,0.0,3.0,1.0,3.0,417.0,8.0,3.0,0.0
791811.0,0.0,4.0,1.0,4.0,811.0,8.0,3.0,2.0
791811.0,0.0,5.0,0.0,5.0,730.0,8.0,3.0,0.0
791811.0,0.0,1.0,1.0,1.0,928.0,9.0,3.0,0.0
791811.0,0.0,2.0,1.0,2.0,486.0,9.0,3.0,0.0
791811.0,0.0,3.0,1.0,3.0,452.0,9.0,3.0,0.0
791811.0,0.0,4.0,1.0,4.0,443.0,9.0,3.0,2.0
791811.0,0.0,5.0,0.0,5.0,663.0,9.0,3.0,0.0
791811.0,0.0,1.0,1.0,1.0,638.0,10.0,3.0,0.0
791811.0,0.0,2.0,1.0,2.0,412.0,10.0,3.0,0.0
791811.0,0.0,3.0,1.0,3.0,860.0,10.0,3.0,0.0
791811.0,0.0,4.0,1.0,4.0,802.0,10.0,3.0,1.0
791811.0,1.0,5.0,1.0,0.0,459.0,10.0,3.0,0.0
791811.0,0.0,1.0,1.0,1.0,917.0,11.0,5.0,0.0
791811.0,0.0,2.0,1.0,2.0,1166.0,11.0,5.0,0.0
791811.0,0.0,3.0,1.0,3.0,778.0,11.0,5.0,0.0
791811.0,0.0,4.0,1.0,4.0,531.0,11.0,5.0,2.0
791811.0,0.0,5.0,0.0,5.0,862.0,11.0,5.0,0.0
791811.0,0.0,1.0,1.0,1.0,547.0,12.0,3.0,0.0
791811.0,0.0,2.0,1.0,2.0,370.0,12.0,3.0,0.0
791811.0,0.0,3.0,1.0,3.0,459.0,12.0,3.0,0.0
791811.0,0.0,4.0,1.0,4.0,829.0,12.0,3.0,2.0
791811.0,0.0,5.0,0.0,5.0,857.0,12.0,3.0,0.0
791811.0,0.0,1.0,1.0,1.0,664.0,13.0,3.0,0.0
791811.0,0.0,2.0,1.0,2.0,651.0,13.0,3.0,0.0
791811.0,0.0,3.0,1.0,3.0,854.0,13.0,3.0,2.0
791811.0,0.0,4.0,0.0,4.0,708.0,13.0,3.0,0.0
791811.0,0.0,1.0,1.0,1.0,856.0,14.0,3.0,0.0
791811.0,0.0,2.0,1.0,2.0,755.0,14.0,3.0,0.0
791811.0,0.0,3.0,1.0,3.0,742.0,14.0,3.0,0.0
791811.0,0.0,4.0,1.0,4.0,722.0,14.0,3.0,0.0
791911.0,0.0,1.0,1.0,1.0,1450.0,1.0,0.0,0.0
791911.0,0.0,2.0,1.0,2.0,873.0,1.0,0.0,0.0
791911.0,0.0,3.0,1.0,3.0,252.0,1.0,0.0,0.0
791911.0,0.0,4.0,1.0,4.0,401.0,1.0,0.0,0.0
791911.0,0.0,5.0,1.0,5.0,311.0,1.0,0.0,0.0
791911.0,0.0,6.0,1.0,6.0,603.0,1.0,0.0,1.0
791911.0,1.0,7.0,1.0,0.0,1048.0,1.0,0.0,0.0
791911.0,0.0,1.0,1.0,1.0,1075.0,2.0,5.0,0.0
791911.0,0.0,2.0,1.0,2.0,513.0,2.0,5.0,0.0
791911.0,0.0,3.0,1.0,3.0,299.0,2.0,5.0,0.0
791911.0,0.0,4.0,1.0,4.0,375.0,2.0,5.0,0.0
791911.0,0.0,5.0,1.0,5.0,512.0,2.0,5.0,0.0
791911.0,0.0,6.0,1.0,6.0,112.0,2.0,5.0,2.0
791911.0,0.0,7.0,0.0,7.0,335.0,2.0,5.0,0.0
791911.0,0.0,1.0,1.0,1.0,526.0,3.0,3.0,0.0
791911.0,0.0,2.0,1.0,2.0,357.0,3.0,3.0,0.0
791911.0,0.0,3.0,1.0,3.0,612.0,3.0,3.0,1.0
791911.0,1.0,4.0,1.0,0.0,572.0,3.0,3.0,0.0
791911.0,0.0,1.0,1.0,1.0,535.0,4.0,5.0,0.0
791911.0,0.0,2.0,1.0,2.0,298.0,4.0,5.0,0.0
791911.0,0.0,3.0,1.0,3.0,233.0,4.0,5.0,0.0
791911.0,0.0,4.0,1.0,4.0,956.0,4.0,5.0,0.0
791911.0,0.0,5.0,1.0,5.0,224.0,4.0,5.0,1.0
791911.0,1.0,6.0,1.0,0.0,265.0,4.0,5.0,0.0
791911.0,0.0,1.0,1.0,1.0,1430.0,5.0,5.0,0.0
791911.0,0.0,2.0,1.0,2.0,1035.0,5.0,5.0,0.0
791911.0,0.0,3.0,1.0,3.0,1210.0,5.0,5.0,0.0
791911.0,0.0,4.0,1.0,4.0,230.0,5.0,5.0,0.0
791911.0,0.0,5.0,1.0,5.0,217.0,5.0,5.0,2.0
791911.0,0.0,6.0,0.0,6.0,300.0,5.0,5.0,0.0
791911.0,0.0,1.0,1.0,1.0,1642.0,6.0,3.0,0.0
791911.0,0.0,2.0,1.0,2.0,593.0,6.0,3.0,0.0
791911.0,0.0,3.0,1.0,3.0,1678.0,6.0,3.0,0.0
791911.0,0.0,4.0,1.0,4.0,267.0,6.0,3.0,0.0
791911.0,0.0,5.0,1.0,5.0,638.0,6.0,3.0,1.0
791911.0,1.0,6.0,1.0,0.0,238.0,6.0,3.0,0.0
791911.0,0.0,1.0,1.0,1.0,410.0,7.0,5.0,0.0
791911.0,0.0,2.0,1.0,2.0,520.0,7.0,5.0,0.0
791911.0,0.0,3.0,1.0,3.0,324.0,7.0,5.0,0.0
791911.0,0.0,4.0,1.0,4.0,312.0,7.0,5.0,1.0
791911.0,1.0,5.0,1.0,0.0,464.0,7.0,5.0,0.0
791911.0,0.0,1.0,1.0,1.0,400.0,8.0,5.0,0.0
791911.0,0.0,2.0,1.0,2.0,608.0,8.0,5.0,0.0
791911.0,0.0,3.0,1.0,3.0,419.0,8.0,5.0,0.0
791911.0,0.0,4.0,1.0,4.0,246.0,8.0,5.0,2.0
791911.0,0.0,5.0,0.0,5.0,551.0,8.0,5.0,0.0
791911.0,0.0,1.0,1.0,1.0,881.0,9.0,3.0,0.0
791911.0,0.0,2.0,1.0,2.0,808.0,9.0,3.0,0.0
791911.0,0.0,3.0,1.0,3.0,683.0,9.0,3.0,0.0
791911.0,0.0,4.0,1.0,4.0,1159.0,9.0,3.0,2.0
791911.0,0.0,5.0,0.0,5.0,289.0,9.0,3.0,0.0
791911.0,0.0,1.0,1.0,1.0,934.0,10.0,3.0,0.0
791911.0,0.0,2.0,1.0,2.0,126.0,10.0,3.0,0.0
791911.0,0.0,3.0,1.0,3.0,233.0,10.0,3.0,0.0
791911.0,0.0,4.0,1.0,4.0,274.0,10.0,3.0,1.0
791911.0,1.0,5.0,1.0,0.0,314.0,10.0,3.0,0.0
791911.0,0.0,1.0,1.0,1.0,625.0,11.0,5.0,0.0
791911.0,0.0,2.0,1.0,2.0,323.0,11.0,5.0,0.0
791911.0,0.0,3.0,1.0,3.0,386.0,11.0,5.0,0.0
791911.0,0.0,4.0,1.0,4.0,333.0,11.0,5.0,2.0
791911.0,0.0,5.0,0.0,5.0,249.0,11.0,5.0,0.0
791911.0,0.0,1.0,1.0,1.0,991.0,12.0,3.0,0.0
791911.0,0.0,2.0,1.0,2.0,321.0,12.0,3.0,0.0
791911.0,0.0,3.0,1.0,3.0,283.0,12.0,3.0,0.0
791911.0,0.0,4.0,1.0,4.0,243.0,12.0,3.0,1.0
791911.0,1.0,5.0,1.0,0.0,480.0,12.0,3.0,0.0
791911.0,0.0,1.0,1.0,1.0,431.0,13.0,5.0,0.0
791911.0,0.0,2.0,1.0,2.0,333.0,13.0,5.0,0.0
791911.0,0.0,3.0,1.0,3.0,316.0,13.0,5.0,1.0
791911.0,1.0,4.0,1.0,0.0,257.0,13.0,5.0,0.0
791911.0,0.0,1.0,1.0,1.0,1023.0,14.0,5.0,0.0
791911.0,0.0,2.0,1.0,2.0,503.0,14.0,5.0,0.0
791911.0,0.0,3.0,1.0,3.0,547.0,14.0,5.0,0.0
791911.0,0.0,4.0,1.0,4.0,400.0,14.0,5.0,0.0
792011.0,0.0,1.0,1.0,1.0,526.0,1.0,0.0,0.0
792011.0,0.0,2.0,1.0,2.0,528.0,1.0,0.0,0.0
792011.0,0.0,3.0,1.0,3.0,472.0,1.0,0.0,0.0
792011.0,0.0,4.0,1.0,4.0,1002.0,1.0,0.0,0.0
792011.0,0.0,5.0,1.0,5.0,428.0,1.0,0.0,2.0
792011.0,0.0,6.0,0.0,6.0,952.0,1.0,0.0,0.0
792011.0,0.0,1.0,1.0,1.0,471.0,2.0,3.0,0.0
792011.0,0.0,2.0,1.0,2.0,628.0,2.0,3.0,0.0
792011.0,0.0,3.0,1.0,3.0,695.0,2.0,3.0,0.0
792011.0,0.0,4.0,1.0,4.0,1123.0,2.0,3.0,2.0
792011.0,0.0,5.0,0.0,5.0,897.0,2.0,3.0,0.0
792011.0,0.0,1.0,1.0,1.0,698.0,3.0,3.0,0.0
792011.0,0.0,2.0,1.0,2.0,720.0,3.0,3.0,0.0
792011.0,0.0,3.0,1.0,3.0,362.0,3.0,3.0,0.0
792011.0,0.0,4.0,1.0,4.0,299.0,3.0,3.0,1.0
792011.0,1.0,5.0,1.0,0.0,359.0,3.0,3.0,0.0
792011.0,0.0,1.0,1.0,1.0,768.0,4.0,5.0,0.0
792011.0,0.0,2.0,1.0,2.0,1255.0,4.0,5.0,0.0
792011.0,0.0,3.0,1.0,3.0,597.0,4.0,5.0,0.0
792011.0,0.0,4.0,1.0,4.0,336.0,4.0,5.0,2.0
792011.0,0.0,5.0,0.0,5.0,262.0,4.0,5.0,0.0
792011.0,0.0,1.0,1.0,1.0,720.0,5.0,3.0,0.0
792011.0,0.0,2.0,1.0,2.0,658.0,5.0,3.0,0.0
792011.0,0.0,3.0,1.0,3.0,347.0,5.0,3.0,0.0
792011.0,0.0,4.0,1.0,4.0,293.0,5.0,3.0,2.0
792011.0,0.0,5.0,0.0,5.0,392.0,5.0,3.0,0.0
792011.0,0.0,1.0,1.0,1.0,511.0,6.0,3.0,0.0
792011.0,0.0,2.0,1.0,2.0,596.0,6.0,3.0,0.0
792011.0,0.0,3.0,1.0,3.0,783.0,6.0,3.0,0.0
792011.0,0.0,4.0,1.0,4.0,281.0,6.0,3.0,2.0
792011.0,0.0,5.0,0.0,5.0,591.0,6.0,3.0,0.0
792011.0,0.0,1.0,1.0,1.0,775.0,7.0,3.0,0.0
792011.0,0.0,2.0,1.0,2.0,564.0,7.0,3.0,0.0
792011.0,0.0,3.0,1.0,3.0,333.0,7.0,3.0,2.0
792011.0,0.0,4.0,0.0,4.0,452.0,7.0,3.0,0.0
792011.0,0.0,1.0,1.0,1.0,813.0,8.0,3.0,0.0
792011.0,0.0,2.0,1.0,2.0,945.0,8.0,3.0,0.0
792011.0,0.0,3.0,1.0,3.0,1333.0,8.0,3.0,2.0
792011.0,0.0,4.0,0.0,4.0,337.0,8.0,3.0,0.0
792011.0,0.0,1.0,1.0,1.0,923.0,9.0,3.0,0.0
792011.0,0.0,2.0,1.0,2.0,514.0,9.0,3.0,0.0
792011.0,0.0,3.0,1.0,3.0,771.0,9.0,3.0,1.0
792011.0,1.0,4.0,1.0,0.0,335.0,9.0,3.0,0.0
792011.0,0.0,1.0,1.0,1.0,671.0,10.0,5.0,0.0
792011.0,0.0,2.0,1.0,2.0,428.0,10.0,5.0,0.0
792011.0,0.0,3.0,1.0,3.0,406.0,10.0,5.0,2.0
792011.0,0.0,4.0,0.0,4.0,444.0,10.0,5.0,0.0
792011.0,0.0,1.0,1.0,1.0,404.0,11.0,3.0,0.0
792011.0,0.0,2.0,1.0,2.0,2027.0,11.0,3.0,0.0
792011.0,0.0,3.0,1.0,3.0,653.0,11.0,3.0,1.0
792011.0,1.0,4.0,1.0,0.0,860.0,11.0,3.0,0.0
792011.0,0.0,1.0,1.0,1.0,634.0,12.0,5.0,0.0
792011.0,0.0,2.0,1.0,2.0,528.0,12.0,5.0,2.0
792011.0,0.0,3.0,0.0,3.0,899.0,12.0,5.0,0.0
792011.0,0.0,1.0,1.0,1.0,873.0,13.0,3.0,0.0
792011.0,0.0,2.0,1.0,2.0,557.0,13.0,3.0,2.0
792011.0,0.0,3.0,0.0,3.0,356.0,13.0,3.0,0.0
792011.0,0.0,1.0,1.0,1.0,769.0,14.0,3.0,0.0
792011.0,0.0,2.0,0.0,2.0,384.0,14.0,3.0,0.0
792011.0,0.0,1.0,1.0,1.0,1673.0,15.0,3.0,0.0
792011.0,0.0,2.0,0.0,2.0,582.0,15.0,3.0,0.0
792011.0,0.0,1.0,1.0,1.0,850.0,16.0,3.0,0.0
792011.0,0.0,2.0,0.0,2.0,576.0,16.0,3.0,0.0
792011.0,0.0,1.0,1.0,1.0,1100.0,17.0,3.0,0.0
792011.0,0.0,2.0,1.0,2.0,410.0,17.0,3.0,0.0
792111.0,0.0,1.0,1.0,1.0,2482.0,1.0,0.0,0.0
792111.0,0.0,2.0,1.0,2.0,1969.0,1.0,0.0,0.0
792111.0,0.0,3.0,1.0,3.0,1107.0,1.0,0.0,0.0
792111.0,0.0,4.0,1.0,4.0,629.0,1.0,0.0,0.0
792111.0,0.0,5.0,1.0,5.0,1077.0,1.0,0.0,0.0
792111.0,0.0,6.0,1.0,6.0,862.0,1.0,0.0,2.0
792111.0,0.0,7.0,0.0,7.0,912.0,1.0,0.0,0.0
792111.0,0.0,1.0,1.0,1.0,818.0,2.0,3.0,0.0
792111.0,0.0,2.0,1.0,2.0,565.0,2.0,3.0,0.0
792111.0,0.0,3.0,1.0,3.0,653.0,2.0,3.0,0.0
792111.0,0.0,4.0,1.0,4.0,719.0,2.0,3.0,0.0
792111.0,0.0,5.0,1.0,5.0,601.0,2.0,3.0,2.0
792111.0,0.0,6.0,0.0,6.0,1974.0,2.0,3.0,0.0
792111.0,0.0,1.0,1.0,1.0,751.0,3.0,3.0,0.0
792111.0,0.0,2.0,1.0,2.0,670.0,3.0,3.0,0.0
792111.0,0.0,3.0,1.0,3.0,738.0,3.0,3.0,0.0
792111.0,0.0,4.0,1.0,4.0,1321.0,3.0,3.0,0.0
792111.0,0.0,5.0,1.0,5.0,1055.0,3.0,3.0,2.0
792111.0,0.0,6.0,0.0,6.0,670.0,3.0,3.0,0.0
792111.0,0.0,1.0,1.0,1.0,2385.0,4.0,3.0,0.0
792111.0,0.0,2.0,1.0,2.0,1018.0,4.0,3.0,0.0
792111.0,0.0,3.0,1.0,3.0,851.0,4.0,3.0,0.0
792111.0,0.0,4.0,1.0,4.0,1242.0,4.0,3.0,0.0
792111.0,0.0,5.0,1.0,5.0,676.0,4.0,3.0,1.0
792111.0,1.0,6.0,1.0,0.0,731.0,4.0,3.0,0.0
792111.0,0.0,1.0,1.0,1.0,1080.0,5.0,5.0,0.0
792111.0,0.0,2.0,1.0,2.0,451.0,5.0,5.0,0.0
792111.0,0.0,3.0,1.0,3.0,451.0,5.0,5.0,0.0
792111.0,0.0,4.0,1.0,4.0,699.0,5.0,5.0,0.0
792111.0,0.0,5.0,1.0,5.0,556.0,5.0,5.0,2.0
792111.0,0.0,6.0,0.0,6.0,496.0,5.0,5.0,0.0
792111.0,0.0,1.0,1.0,1.0,1336.0,6.0,3.0,0.0
792111.0,0.0,2.0,1.0,2.0,1699.0,6.0,3.0,0.0
792111.0,0.0,3.0,1.0,3.0,2611.0,6.0,3.0,0.0
792111.0,0.0,4.0,1.0,4.0,1267.0,6.0,3.0,2.0
792111.0,0.0,5.0,0.0,5.0,626.0,6.0,3.0,0.0
792111.0,0.0,1.0,1.0,1.0,1037.0,7.0,3.0,0.0
792111.0,0.0,2.0,1.0,2.0,738.0,7.0,3.0,0.0
792111.0,0.0,3.0,1.0,3.0,551.0,7.0,3.0,0.0
792111.0,0.0,4.0,1.0,4.0,527.0,7.0,3.0,2.0
792111.0,0.0,5.0,0.0,5.0,628.0,7.0,3.0,0.0
792111.0,0.0,1.0,1.0,1.0,1232.0,8.0,3.0,0.0
792111.0,0.0,2.0,1.0,2.0,700.0,8.0,3.0,0.0
792111.0,0.0,3.0,1.0,3.0,561.0,8.0,3.0,0.0
792111.0,0.0,4.0,1.0,4.0,992.0,8.0,3.0,2.0
792111.0,0.0,5.0,0.0,5.0,580.0,8.0,3.0,0.0
792111.0,0.0,1.0,1.0,1.0,782.0,9.0,3.0,0.0
792111.0,0.0,2.0,1.0,2.0,856.0,9.0,3.0,0.0
792111.0,0.0,3.0,1.0,3.0,902.0,9.0,3.0,0.0
792111.0,0.0,4.0,1.0,4.0,382.0,9.0,3.0,2.0
792111.0,0.0,5.0,0.0,5.0,714.0,9.0,3.0,0.0
792111.0,0.0,1.0,1.0,1.0,768.0,10.0,3.0,0.0
792111.0,0.0,2.0,1.0,2.0,431.0,10.0,3.0,0.0
792111.0,0.0,3.0,1.0,3.0,501.0,10.0,3.0,0.0
792111.0,0.0,4.0,1.0,4.0,656.0,10.0,3.0,2.0
792111.0,0.0,5.0,0.0,5.0,468.0,10.0,3.0,0.0
792111.0,0.0,1.0,1.0,1.0,837.0,11.0,3.0,0.0
792111.0,0.0,2.0,1.0,2.0,440.0,11.0,3.0,0.0
792111.0,0.0,3.0,1.0,3.0,701.0,11.0,3.0,2.0
792111.0,0.0,4.0,0.0,4.0,434.0,11.0,3.0,0.0
792111.0,0.0,1.0,1.0,1.0,823.0,12.0,3.0,0.0
792111.0,0.0,2.0,1.0,2.0,591.0,12.0,3.0,0.0
792111.0,0.0,3.0,1.0,3.0,371.0,12.0,3.0,2.0
792111.0,0.0,4.0,0.0,4.0,1228.0,12.0,3.0,0.0
792111.0,0.0,1.0,1.0,1.0,1031.0,13.0,3.0,0.0
792111.0,0.0,2.0,1.0,2.0,756.0,13.0,3.0,0.0
792111.0,0.0,3.0,1.0,3.0,844.0,13.0,3.0,2.0
792111.0,0.0,4.0,0.0,4.0,765.0,13.0,3.0,0.0
792111.0,0.0,1.0,1.0,1.0,1015.0,14.0,3.0,0.0
792111.0,0.0,2.0,1.0,2.0,779.0,14.0,3.0,0.0
792111.0,0.0,3.0,1.0,3.0,636.0,14.0,3.0,0.0
792111.0,0.0,4.0,1.0,4.0,555.0,14.0,3.0,0.0
792211.0,0.0,1.0,1.0,1.0,1520.0,1.0,0.0,0.0
792211.0,0.0,2.0,1.0,2.0,791.0,1.0,0.0,0.0
792211.0,0.0,3.0,1.0,3.0,595.0,1.0,0.0,0.0
792211.0,0.0,4.0,1.0,4.0,451.0,1.0,0.0,0.0
792211.0,0.0,5.0,1.0,5.0,574.0,1.0,0.0,0.0
792211.0,0.0,6.0,1.0,6.0,1963.0,1.0,0.0,2.0
792211.0,0.0,7.0,0.0,7.0,587.0,1.0,0.0,0.0
792211.0,0.0,1.0,1.0,1.0,665.0,2.0,3.0,0.0
792211.0,0.0,2.0,1.0,2.0,914.0,2.0,3.0,0.0
792211.0,0.0,3.0,1.0,3.0,343.0,2.0,3.0,0.0
792211.0,0.0,4.0,1.0,4.0,760.0,2.0,3.0,0.0
792211.0,0.0,5.0,1.0,5.0,511.0,2.0,3.0,0.0
792211.0,0.0,6.0,1.0,6.0,1288.0,2.0,3.0,2.0
792211.0,0.0,7.0,0.0,7.0,2021.0,2.0,3.0,0.0
792211.0,0.0,1.0,1.0,1.0,514.0,3.0,3.0,0.0
792211.0,0.0,2.0,1.0,2.0,706.0,3.0,3.0,0.0
792211.0,0.0,3.0,1.0,3.0,2012.0,3.0,3.0,0.0
792211.0,0.0,4.0,1.0,4.0,409.0,3.0,3.0,0.0
792211.0,0.0,5.0,1.0,5.0,909.0,3.0,3.0,2.0
792211.0,0.0,6.0,0.0,6.0,487.0,3.0,3.0,0.0
792211.0,0.0,1.0,1.0,1.0,643.0,4.0,3.0,0.0
792211.0,0.0,2.0,1.0,2.0,826.0,4.0,3.0,0.0
792211.0,0.0,3.0,1.0,3.0,433.0,4.0,3.0,0.0
792211.0,0.0,4.0,1.0,4.0,576.0,4.0,3.0,0.0
792211.0,0.0,5.0,1.0,5.0,463.0,4.0,3.0,2.0
792211.0,0.0,6.0,0.0,6.0,359.0,4.0,3.0,0.0
792211.0,0.0,1.0,1.0,1.0,628.0,5.0,3.0,0.0
792211.0,0.0,2.0,1.0,2.0,349.0,5.0,3.0,0.0
792211.0,0.0,3.0,1.0,3.0,327.0,5.0,3.0,0.0
792211.0,0.0,4.0,1.0,4.0,712.0,5.0,3.0,0.0
792211.0,0.0,5.0,1.0,5.0,617.0,5.0,3.0,1.0
792211.0,1.0,6.0,1.0,0.0,372.0,5.0,3.0,0.0
792211.0,0.0,1.0,1.0,1.0,463.0,6.0,5.0,0.0
792211.0,0.0,2.0,1.0,2.0,337.0,6.0,5.0,0.0
792211.0,0.0,3.0,1.0,3.0,724.0,6.0,5.0,0.0
792211.0,0.0,4.0,1.0,4.0,803.0,6.0,5.0,0.0
792211.0,0.0,5.0,1.0,5.0,477.0,6.0,5.0,1.0
792211.0,1.0,6.0,1.0,0.0,427.0,6.0,5.0,0.0
792211.0,0.0,1.0,1.0,1.0,474.0,7.0,5.0,0.0
792211.0,0.0,2.0,1.0,2.0,912.0,7.0,5.0,0.0
792211.0,0.0,3.0,1.0,3.0,478.0,7.0,5.0,0.0
792211.0,0.0,4.0,1.0,4.0,512.0,7.0,5.0,0.0
792211.0,0.0,5.0,1.0,5.0,473.0,7.0,5.0,2.0
792211.0,0.0,6.0,0.0,6.0,444.0,7.0,5.0,0.0
792211.0,0.0,1.0,1.0,1.0,520.0,8.0,3.0,0.0
792211.0,0.0,2.0,1.0,2.0,652.0,8.0,3.0,0.0
792211.0,0.0,3.0,1.0,3.0,369.0,8.0,3.0,0.0
792211.0,0.0,4.0,1.0,4.0,588.0,8.0,3.0,0.0
792211.0,0.0,5.0,1.0,5.0,707.0,8.0,3.0,2.0
792211.0,0.0,6.0,0.0,6.0,616.0,8.0,3.0,0.0
792211.0,0.0,1.0,1.0,1.0,308.0,9.0,3.0,0.0
792211.0,0.0,2.0,1.0,2.0,472.0,9.0,3.0,0.0
792211.0,0.0,3.0,1.0,3.0,497.0,9.0,3.0,0.0
792211.0,0.0,4.0,1.0,4.0,347.0,9.0,3.0,0.0
792211.0,0.0,5.0,1.0,5.0,341.0,9.0,3.0,2.0
792211.0,0.0,6.0,0.0,6.0,493.0,9.0,3.0,0.0
792211.0,0.0,1.0,1.0,1.0,426.0,10.0,3.0,0.0
792211.0,0.0,2.0,1.0,2.0,495.0,10.0,3.0,0.0
792211.0,0.0,3.0,1.0,3.0,359.0,10.0,3.0,0.0
792211.0,0.0,4.0,1.0,4.0,421.0,10.0,3.0,0.0
792211.0,0.0,5.0,1.0,5.0,673.0,10.0,3.0,2.0
792211.0,0.0,6.0,0.0,6.0,630.0,10.0,3.0,0.0
792211.0,0.0,1.0,1.0,1.0,542.0,11.0,3.0,0.0
792211.0,0.0,2.0,1.0,2.0,435.0,11.0,3.0,0.0
792211.0,0.0,3.0,1.0,3.0,656.0,11.0,3.0,0.0
792211.0,0.0,4.0,1.0,4.0,481.0,11.0,3.0,2.0
792211.0,0.0,5.0,0.0,5.0,444.0,11.0,3.0,0.0
792211.0,0.0,1.0,1.0,1.0,368.0,12.0,3.0,0.0
792211.0,0.0,2.0,1.0,2.0,453.0,12.0,3.0,0.0
792211.0,0.0,3.0,1.0,3.0,412.0,12.0,3.0,0.0
792211.0,0.0,4.0,1.0,4.0,351.0,12.0,3.0,2.0
792211.0,0.0,5.0,0.0,5.0,980.0,12.0,3.0,0.0
792211.0,0.0,1.0,1.0,1.0,521.0,13.0,3.0,0.0
792211.0,0.0,2.0,0.0,2.0,496.0,13.0,3.0,0.0
792211.0,0.0,1.0,1.0,1.0,972.0,14.0,3.0,0.0
792211.0,0.0,2.0,1.0,2.0,607.0,14.0,3.0,0.0
792311.0,0.0,1.0,1.0,1.0,793.0,1.0,0.0,0.0
792311.0,0.0,2.0,1.0,2.0,472.0,1.0,0.0,0.0
792311.0,0.0,3.0,1.0,3.0,803.0,1.0,0.0,0.0
792311.0,0.0,4.0,1.0,4.0,622.0,1.0,0.0,0.0
792311.0,0.0,5.0,1.0,5.0,793.0,1.0,0.0,0.0
792311.0,0.0,6.0,1.0,6.0,575.0,1.0,0.0,1.0
792311.0,1.0,7.0,1.0,0.0,577.0,1.0,0.0,0.0
792311.0,0.0,1.0,1.0,1.0,946.0,2.0,5.0,0.0
792311.0,0.0,2.0,1.0,2.0,1053.0,2.0,5.0,0.0
792311.0,0.0,3.0,1.0,3.0,479.0,2.0,5.0,0.0
792311.0,0.0,4.0,1.0,4.0,558.0,2.0,5.0,0.0
792311.0,0.0,5.0,1.0,5.0,655.0,2.0,5.0,2.0
792311.0,0.0,6.0,0.0,6.0,711.0,2.0,5.0,0.0
792311.0,0.0,1.0,1.0,1.0,1565.0,3.0,3.0,0.0
792311.0,0.0,2.0,1.0,2.0,984.0,3.0,3.0,0.0
792311.0,0.0,3.0,1.0,3.0,551.0,3.0,3.0,0.0
792311.0,0.0,4.0,1.0,4.0,653.0,3.0,3.0,0.0
792311.0,0.0,5.0,1.0,5.0,387.0,3.0,3.0,2.0
792311.0,0.0,6.0,0.0,6.0,528.0,3.0,3.0,0.0
792311.0,0.0,1.0,1.0,1.0,954.0,4.0,3.0,0.0
792311.0,0.0,2.0,1.0,2.0,756.0,4.0,3.0,0.0
792311.0,0.0,3.0,1.0,3.0,1321.0,4.0,3.0,0.0
792311.0,0.0,4.0,1.0,4.0,969.0,4.0,3.0,2.0
792311.0,0.0,5.0,0.0,5.0,449.0,4.0,3.0,0.0
792311.0,0.0,1.0,1.0,1.0,1017.0,5.0,3.0,0.0
792311.0,0.0,2.0,1.0,2.0,757.0,5.0,3.0,0.0
792311.0,0.0,3.0,1.0,3.0,497.0,5.0,3.0,1.0
792311.0,1.0,4.0,1.0,0.0,458.0,5.0,3.0,0.0
792311.0,0.0,1.0,1.0,1.0,552.0,6.0,5.0,0.0
792311.0,0.0,2.0,1.0,2.0,603.0,6.0,5.0,0.0
792311.0,0.0,3.0,1.0,3.0,868.0,6.0,5.0,2.0
792311.0,0.0,4.0,0.0,4.0,1275.0,6.0,5.0,0.0
792311.0,0.0,1.0,1.0,1.0,1799.0,7.0,3.0,0.0
792311.0,0.0,2.0,1.0,2.0,664.0,7.0,3.0,0.0
792311.0,0.0,3.0,1.0,3.0,388.0,7.0,3.0,0.0
792311.0,0.0,4.0,1.0,4.0,627.0,7.0,3.0,2.0
792311.0,0.0,5.0,0.0,5.0,478.0,7.0,3.0,0.0
792311.0,0.0,1.0,1.0,1.0,640.0,8.0,3.0,0.0
792311.0,0.0,2.0,1.0,2.0,767.0,8.0,3.0,0.0
792311.0,0.0,3.0,1.0,3.0,707.0,8.0,3.0,0.0
792311.0,0.0,4.0,1.0,4.0,548.0,8.0,3.0,2.0
792311.0,0.0,5.0,0.0,5.0,732.0,8.0,3.0,0.0
792311.0,0.0,1.0,1.0,1.0,861.0,9.0,3.0,0.0
792311.0,0.0,2.0,1.0,2.0,498.0,9.0,3.0,0.0
792311.0,0.0,3.0,1.0,3.0,605.0,9.0,3.0,0.0
792311.0,0.0,4.0,1.0,4.0,711.0,9.0,3.0,2.0
792311.0,0.0,5.0,0.0,5.0,464.0,9.0,3.0,0.0
792311.0,0.0,1.0,1.0,1.0,1886.0,10.0,3.0,0.0
792311.0,0.0,2.0,1.0,2.0,693.0,10.0,3.0,0.0
792311.0,0.0,3.0,1.0,3.0,643.0,10.0,3.0,0.0
792311.0,0.0,4.0,1.0,4.0,591.0,10.0,3.0,1.0
792311.0,1.0,5.0,1.0,0.0,537.0,10.0,3.0,0.0
792311.0,0.0,1.0,1.0,1.0,1511.0,11.0,5.0,0.0
792311.0,0.0,2.0,1.0,2.0,509.0,11.0,5.0,0.0
792311.0,0.0,3.0,1.0,3.0,670.0,11.0,5.0,1.0
792311.0,1.0,4.0,1.0,0.0,567.0,11.0,5.0,0.0
792311.0,0.0,1.0,1.0,1.0,1154.0,12.0,5.0,0.0
792311.0,0.0,2.0,1.0,2.0,637.0,12.0,5.0,0.0
792311.0,0.0,3.0,1.0,3.0,656.0,12.0,5.0,2.0
792311.0,0.0,4.0,0.0,4.0,443.0,12.0,5.0,0.0
792311.0,0.0,1.0,1.0,1.0,644.0,13.0,3.0,0.0
792311.0,0.0,2.0,1.0,2.0,457.0,13.0,3.0,0.0
792311.0,0.0,3.0,1.0,3.0,621.0,13.0,3.0,1.0
792311.0,1.0,4.0,1.0,0.0,771.0,13.0,3.0,0.0
792311.0,0.0,1.0,1.0,1.0,861.0,14.0,5.0,0.0
792311.0,0.0,2.0,1.0,2.0,701.0,14.0,5.0,1.0
792311.0,1.0,3.0,1.0,0.0,650.0,14.0,5.0,0.0
792311.0,0.0,1.0,1.0,1.0,673.0,15.0,5.0,0.0
792311.0,0.0,2.0,0.0,2.0,636.0,15.0,5.0,0.0
792311.0,0.0,1.0,1.0,1.0,617.0,16.0,3.0,0.0
792411.0,0.0,1.0,1.0,1.0,843.0,1.0,0.0,0.0
792411.0,0.0,2.0,1.0,2.0,451.0,1.0,0.0,0.0
792411.0,0.0,3.0,1.0,3.0,542.0,1.0,0.0,0.0
792411.0,0.0,4.0,1.0,4.0,734.0,1.0,0.0,0.0
792411.0,0.0,5.0,1.0,5.0,840.0,1.0,0.0,0.0
792411.0,0.0,6.0,1.0,6.0,553.0,1.0,0.0,2.0
792411.0,0.0,7.0,0.0,7.0,1350.0,1.0,0.0,0.0
792411.0,0.0,1.0,1.0,1.0,680.0,2.0,3.0,0.0
792411.0,0.0,2.0,1.0,2.0,526.0,2.0,3.0,0.0
792411.0,0.0,3.0,1.0,3.0,595.0,2.0,3.0,0.0
792411.0,0.0,4.0,1.0,4.0,590.0,2.0,3.0,0.0
792411.0,0.0,5.0,1.0,5.0,491.0,2.0,3.0,0.0
792411.0,0.0,6.0,1.0,6.0,430.0,2.0,3.0,1.0
792411.0,1.0,7.0,1.0,0.0,516.0,2.0,3.0,0.0
792411.0,0.0,1.0,1.0,1.0,498.0,3.0,5.0,0.0
792411.0,0.0,2.0,1.0,2.0,713.0,3.0,5.0,0.0
792411.0,0.0,3.0,1.0,3.0,1646.0,3.0,5.0,0.0
792411.0,0.0,4.0,1.0,4.0,629.0,3.0,5.0,0.0
792411.0,0.0,5.0,1.0,5.0,531.0,3.0,5.0,0.0
792411.0,0.0,6.0,1.0,6.0,491.0,3.0,5.0,2.0
792411.0,0.0,7.0,0.0,7.0,444.0,3.0,5.0,0.0
792411.0,0.0,1.0,1.0,1.0,758.0,4.0,3.0,0.0
792411.0,0.0,2.0,1.0,2.0,717.0,4.0,3.0,0.0
792411.0,0.0,3.0,1.0,3.0,748.0,4.0,3.0,0.0
792411.0,0.0,4.0,1.0,4.0,1073.0,4.0,3.0,0.0
792411.0,0.0,5.0,1.0,5.0,611.0,4.0,3.0,0.0
792411.0,0.0,6.0,1.0,6.0,953.0,4.0,3.0,1.0
792411.0,1.0,7.0,1.0,0.0,663.0,4.0,3.0,0.0
792411.0,0.0,1.0,1.0,1.0,603.0,5.0,5.0,0.0
792411.0,0.0,2.0,1.0,2.0,439.0,5.0,5.0,0.0
792411.0,0.0,3.0,1.0,3.0,744.0,5.0,5.0,0.0
792411.0,0.0,4.0,1.0,4.0,414.0,5.0,5.0,0.0
792411.0,0.0,5.0,1.0,5.0,648.0,5.0,5.0,1.0
792411.0,1.0,6.0,1.0,0.0,506.0,5.0,5.0,0.0
792411.0,0.0,1.0,1.0,1.0,999.0,6.0,5.0,0.0
792411.0,0.0,2.0,1.0,2.0,804.0,6.0,5.0,0.0
792411.0,0.0,3.0,1.0,3.0,470.0,6.0,5.0,0.0
792411.0,0.0,4.0,1.0,4.0,1798.0,6.0,5.0,0.0
792411.0,0.0,5.0,1.0,5.0,1272.0,6.0,5.0,1.0
792411.0,1.0,6.0,1.0,0.0,553.0,6.0,5.0,0.0
792411.0,0.0,1.0,1.0,1.0,497.0,7.0,5.0,0.0
792411.0,0.0,2.0,1.0,2.0,935.0,7.0,5.0,0.0
792411.0,0.0,3.0,1.0,3.0,866.0,7.0,5.0,0.0
792411.0,0.0,4.0,1.0,4.0,809.0,7.0,5.0,0.0
792411.0,0.0,5.0,1.0,5.0,779.0,7.0,5.0,1.0
792411.0,1.0,6.0,1.0,0.0,419.0,7.0,5.0,0.0
792411.0,0.0,1.0,1.0,1.0,669.0,8.0,5.0,0.0
792411.0,0.0,2.0,1.0,2.0,588.0,8.0,5.0,0.0
792411.0,0.0,3.0,1.0,3.0,840.0,8.0,5.0,0.0
792411.0,0.0,4.0,1.0,4.0,1430.0,8.0,5.0,2.0
792411.0,0.0,5.0,0.0,5.0,1298.0,8.0,5.0,0.0
792411.0,0.0,1.0,1.0,1.0,924.0,9.0,3.0,0.0
792411.0,0.0,2.0,1.0,2.0,894.0,9.0,3.0,0.0
792411.0,0.0,3.0,1.0,3.0,1331.0,9.0,3.0,0.0
792411.0,0.0,4.0,1.0,4.0,383.0,9.0,3.0,2.0
792411.0,0.0,5.0,0.0,5.0,474.0,9.0,3.0,0.0
792411.0,0.0,1.0,1.0,1.0,1124.0,10.0,3.0,0.0
792411.0,0.0,2.0,1.0,2.0,524.0,10.0,3.0,0.0
792411.0,0.0,3.0,1.0,3.0,486.0,10.0,3.0,0.0
792411.0,0.0,4.0,1.0,4.0,417.0,10.0,3.0,1.0
792411.0,1.0,5.0,1.0,0.0,439.0,10.0,3.0,0.0
792411.0,0.0,1.0,1.0,1.0,690.0,11.0,5.0,0.0
792411.0,0.0,2.0,1.0,2.0,427.0,11.0,5.0,0.0
792411.0,0.0,3.0,1.0,3.0,596.0,11.0,5.0,1.0
792411.0,1.0,4.0,1.0,0.0,964.0,11.0,5.0,0.0
792411.0,0.0,1.0,1.0,1.0,715.0,12.0,5.0,0.0
792411.0,0.0,2.0,1.0,2.0,796.0,12.0,5.0,1.0
792411.0,1.0,3.0,1.0,0.0,1093.0,12.0,5.0,0.0
792411.0,0.0,1.0,1.0,1.0,613.0,13.0,5.0,0.0
792411.0,0.0,2.0,1.0,2.0,696.0,13.0,5.0,0.0
792411.0,0.0,3.0,1.0,3.0,633.0,13.0,5.0,0.0
792611.0,0.0,1.0,1.0,1.0,540.0,1.0,0.0,0.0
792611.0,0.0,2.0,1.0,2.0,299.0,1.0,0.0,0.0
792611.0,0.0,3.0,1.0,3.0,281.0,1.0,0.0,0.0
792611.0,0.0,4.0,1.0,4.0,277.0,1.0,0.0,0.0
792611.0,0.0,5.0,1.0,5.0,391.0,1.0,0.0,0.0
792611.0,0.0,6.0,1.0,6.0,338.0,1.0,0.0,2.0
792611.0,0.0,7.0,0.0,7.0,813.0,1.0,0.0,0.0
792611.0,0.0,1.0,1.0,1.0,417.0,2.0,3.0,0.0
792611.0,0.0,2.0,1.0,2.0,330.0,2.0,3.0,0.0
792611.0,0.0,3.0,1.0,3.0,728.0,2.0,3.0,0.0
792611.0,0.0,4.0,1.0,4.0,305.0,2.0,3.0,0.0
792611.0,0.0,5.0,1.0,5.0,297.0,2.0,3.0,0.0
792611.0,0.0,6.0,1.0,6.0,289.0,2.0,3.0,2.0
792611.0,0.0,7.0,0.0,7.0,521.0,2.0,3.0,0.0
792611.0,0.0,1.0,1.0,1.0,392.0,3.0,3.0,0.0
792611.0,0.0,2.0,1.0,2.0,500.0,3.0,3.0,0.0
792611.0,0.0,3.0,1.0,3.0,327.0,3.0,3.0,0.0
792611.0,0.0,4.0,1.0,4.0,294.0,3.0,3.0,0.0
792611.0,0.0,5.0,1.0,5.0,287.0,3.0,3.0,1.0
792611.0,1.0,6.0,1.0,0.0,289.0,3.0,3.0,0.0
792611.0,0.0,1.0,1.0,1.0,414.0,4.0,5.0,0.0
792611.0,0.0,2.0,1.0,2.0,336.0,4.0,5.0,0.0
792611.0,0.0,3.0,1.0,3.0,430.0,4.0,5.0,0.0
792611.0,0.0,4.0,1.0,4.0,361.0,4.0,5.0,0.0
792611.0,0.0,5.0,1.0,5.0,376.0,4.0,5.0,1.0
792611.0,1.0,6.0,1.0,0.0,673.0,4.0,5.0,0.0
792611.0,0.0,1.0,1.0,1.0,386.0,5.0,5.0,0.0
792611.0,0.0,2.0,1.0,2.0,335.0,5.0,5.0,0.0
792611.0,0.0,3.0,1.0,3.0,326.0,5.0,5.0,0.0
792611.0,0.0,4.0,1.0,4.0,966.0,5.0,5.0,0.0
792611.0,0.0,5.0,1.0,5.0,1440.0,5.0,5.0,2.0
792611.0,0.0,6.0,0.0,6.0,346.0,5.0,5.0,0.0
792611.0,0.0,1.0,1.0,1.0,596.0,6.0,3.0,0.0
792611.0,0.0,2.0,1.0,2.0,314.0,6.0,3.0,0.0
792611.0,0.0,3.0,1.0,3.0,323.0,6.0,3.0,0.0
792611.0,0.0,4.0,1.0,4.0,321.0,6.0,3.0,0.0
792611.0,0.0,5.0,1.0,5.0,870.0,6.0,3.0,2.0
792611.0,0.0,6.0,0.0,6.0,388.0,6.0,3.0,0.0
792611.0,0.0,1.0,1.0,1.0,453.0,7.0,3.0,0.0
792611.0,0.0,2.0,1.0,2.0,272.0,7.0,3.0,0.0
792611.0,0.0,3.0,1.0,3.0,470.0,7.0,3.0,0.0
792611.0,0.0,4.0,1.0,4.0,343.0,7.0,3.0,0.0
792611.0,0.0,5.0,1.0,5.0,869.0,7.0,3.0,2.0
792611.0,0.0,6.0,0.0,6.0,329.0,7.0,3.0,0.0
792611.0,0.0,1.0,1.0,1.0,444.0,8.0,3.0,0.0
792611.0,0.0,2.0,1.0,2.0,342.0,8.0,3.0,0.0
792611.0,0.0,3.0,1.0,3.0,447.0,8.0,3.0,0.0
792611.0,0.0,4.0,1.0,4.0,431.0,8.0,3.0,2.0
792611.0,0.0,5.0,0.0,5.0,301.0,8.0,3.0,0.0
792611.0,0.0,1.0,1.0,1.0,545.0,9.0,3.0,0.0
792611.0,0.0,2.0,1.0,2.0,382.0,9.0,3.0,0.0
792611.0,0.0,3.0,1.0,3.0,359.0,9.0,3.0,0.0
792611.0,0.0,4.0,1.0,4.0,470.0,9.0,3.0,1.0
792611.0,1.0,5.0,1.0,0.0,720.0,9.0,3.0,0.0
792611.0,0.0,1.0,1.0,1.0,492.0,10.0,5.0,0.0
792611.0,0.0,2.0,1.0,2.0,379.0,10.0,5.0,0.0
792611.0,0.0,3.0,1.0,3.0,340.0,10.0,5.0,2.0
792611.0,0.0,4.0,0.0,4.0,285.0,10.0,5.0,0.0
792611.0,0.0,1.0,1.0,1.0,466.0,11.0,3.0,0.0
792611.0,0.0,2.0,1.0,2.0,289.0,11.0,3.0,0.0
792611.0,0.0,3.0,1.0,3.0,304.0,11.0,3.0,2.0
792611.0,0.0,4.0,0.0,4.0,386.0,11.0,3.0,0.0
792611.0,0.0,1.0,1.0,1.0,410.0,12.0,3.0,0.0
792611.0,0.0,2.0,1.0,2.0,404.0,12.0,3.0,0.0
792611.0,0.0,3.0,1.0,3.0,312.0,12.0,3.0,2.0
792611.0,0.0,4.0,0.0,4.0,322.0,12.0,3.0,0.0
792611.0,0.0,1.0,1.0,1.0,564.0,13.0,3.0,0.0
792611.0,0.0,2.0,1.0,2.0,312.0,13.0,3.0,0.0
792611.0,0.0,3.0,1.0,3.0,333.0,13.0,3.0,1.0
792611.0,1.0,4.0,1.0,0.0,325.0,13.0,3.0,0.0
792611.0,0.0,1.0,1.0,1.0,329.0,14.0,5.0,0.0
792611.0,0.0,2.0,1.0,2.0,343.0,14.0,5.0,1.0
792611.0,1.0,3.0,1.0,0.0,566.0,14.0,5.0,0.0
792611.0,0.0,1.0,1.0,1.0,410.0,15.0,5.0,0.0
792611.0,0.0,2.0,1.0,2.0,310.0,15.0,5.0,0.0
792711.0,0.0,1.0,1.0,1.0,731.0,1.0,0.0,0.0
792711.0,0.0,2.0,1.0,2.0,386.0,1.0,0.0,0.0
792711.0,0.0,3.0,1.0,3.0,254.0,1.0,0.0,0.0
792711.0,0.0,4.0,1.0,4.0,376.0,1.0,0.0,0.0
792711.0,0.0,5.0,1.0,5.0,399.0,1.0,0.0,1.0
792711.0,1.0,6.0,1.0,0.0,932.0,1.0,0.0,0.0
792711.0,0.0,1.0,1.0,1.0,330.0,2.0,5.0,0.0
792711.0,0.0,2.0,1.0,2.0,318.0,2.0,5.0,0.0
792711.0,0.0,3.0,1.0,3.0,379.0,2.0,5.0,0.0
792711.0,0.0,4.0,1.0,4.0,396.0,2.0,5.0,0.0
792711.0,0.0,5.0,1.0,5.0,498.0,2.0,5.0,2.0
792711.0,0.0,6.0,0.0,6.0,709.0,2.0,5.0,0.0
792711.0,0.0,1.0,1.0,1.0,362.0,3.0,3.0,0.0
