subj_idx,isblow,pump_idx,choice,reward,reaction_time,trial,HE,PCPP
3001015911.0,0.0,1.0,1.0,1.0,1208.3920740001299,1.0,0.0,0.0
3001015911.0,0.0,2.0,1.0,2.0,625.47754600018402,1.0,0.0,0.0
3001015911.0,0.0,3.0,1.0,3.0,561.7607249996579,1.0,0.0,1.0
3001015911.0,1.0,4.0,1.0,0.0,0.0,1.0,0.0,0.0
3001015911.0,0.0,1.0,1.0,1.0,470.33093900017798,2.0,5.0,0.0
3001015911.0,0.0,2.0,1.0,2.0,435.67359600001504,2.0,5.0,1.0
3001015911.0,1.0,3.0,1.0,0.0,885.3065660000542,2.0,5.0,0.0
3001015911.0,0.0,1.0,1.0,1.0,501.80522599976007,3.0,5.0,0.0
3001015911.0,0.0,2.0,1.0,2.0,366.77779699994102,3.0,5.0,0.0
3001015911.0,0.0,3.0,1.0,3.0,961.6880650000893,3.0,5.0,1.0
3001015911.0,1.0,4.0,1.0,0.0,588.79620000016098,3.0,5.0,0.0
3001015911.0,0.0,1.0,1.0,1.0,701.8511709998171,5.0,5.0,0.0
3001015911.0,0.0,2.0,1.0,2.0,418.65584400011397,5.0,5.0,0.0
3001015911.0,0.0,3.0,1.0,3.0,339.00681000022814,5.0,5.0,0.0
3001015911.0,0.0,4.0,1.0,4.0,619.01937899983704,5.0,5.0,2.0
3001015911.0,0.0,5.0,0.0,5.0,459.85949799978704,5.0,5.0,0.0
3001015911.0,0.0,1.0,1.0,1.0,405.97436400003096,7.0,3.0,0.0
3001015911.0,0.0,2.0,1.0,2.0,328.37885600019899,7.0,3.0,0.0
3001015911.0,0.0,3.0,1.0,3.0,737.12590399964017,7.0,3.0,0.0
3001015911.0,0.0,4.0,1.0,4.0,431.48896299999291,7.0,3.0,2.0
3001015911.0,0.0,5.0,0.0,5.0,0.0,7.0,3.0,0.0
3001015911.0,0.0,1.0,1.0,1.0,371.84412400028998,8.0,3.0,0.0
3001015911.0,0.0,2.0,1.0,2.0,322.70107899967098,8.0,3.0,1.0
3001015911.0,1.0,3.0,1.0,0.0,0.0,8.0,3.0,0.0
3001015911.0,0.0,1.0,1.0,1.0,453.31246400019205,9.0,5.0,0.0
3001015911.0,0.0,2.0,1.0,2.0,446.13939600003488,9.0,5.0,0.0
3001015911.0,0.0,3.0,1.0,3.0,768.96500099974196,9.0,5.0,1.0
3001015911.0,1.0,4.0,1.0,0.0,600.78409600009809,9.0,5.0,0.0
3001015911.0,0.0,1.0,1.0,1.0,423.29654900004209,11.0,5.0,0.0
3001015911.0,0.0,2.0,1.0,2.0,380.84611899967109,11.0,5.0,0.0
3001015911.0,0.0,3.0,1.0,3.0,490.37772300016502,11.0,5.0,1.0
3001015911.0,1.0,4.0,1.0,0.0,1417.3235889998098,11.0,5.0,0.0
3001015911.0,0.0,1.0,1.0,1.0,408.77042700003602,13.0,5.0,0.0
3001015911.0,0.0,2.0,1.0,2.0,340.04198899992804,13.0,5.0,0.0
3001015911.0,0.0,3.0,1.0,3.0,451.45252700012901,13.0,5.0,0.0
3001015911.0,0.0,4.0,1.0,4.0,526.84434499997201,13.0,5.0,1.0
3001015911.0,1.0,5.0,1.0,0.0,551.583182000286,13.0,5.0,0.0
3001015911.0,0.0,1.0,1.0,1.0,502.09056700032312,15.0,5.0,0.0
3001015911.0,0.0,2.0,1.0,2.0,389.97810299997599,15.0,5.0,0.0
3001015911.0,0.0,3.0,1.0,3.0,376.44747800004603,15.0,5.0,0.0
3001015911.0,0.0,4.0,1.0,4.0,416.55384900013803,15.0,5.0,1.0
3001015911.0,1.0,5.0,1.0,0.0,477.26668700033798,15.0,5.0,0.0
3001015911.0,0.0,1.0,1.0,1.0,588.09036499997114,17.0,5.0,0.0
3001015911.0,0.0,2.0,1.0,2.0,338.05204999998796,17.0,5.0,0.0
3001015911.0,0.0,3.0,1.0,3.0,372.81883499963402,17.0,5.0,0.0
3001015911.0,0.0,4.0,1.0,4.0,753.08562100008191,17.0,5.0,2.0
3001015911.0,0.0,5.0,0.0,5.0,629.71595699991701,17.0,5.0,0.0
3001015911.0,0.0,1.0,1.0,1.0,396.90260899988107,18.0,3.0,0.0
3001015911.0,0.0,2.0,0.0,2.0,0.0,18.0,3.0,0.0
3001015911.0,0.0,1.0,1.0,1.0,365.20069900007002,19.0,3.0,0.0
3001015911.0,0.0,2.0,0.0,2.0,0.0,19.0,3.0,0.0
3001015911.0,0.0,1.0,1.0,1.0,492.66332799970803,21.0,3.0,0.0
3001015911.0,0.0,2.0,1.0,2.0,397.54081700039001,21.0,3.0,0.0
3001015911.0,0.0,3.0,1.0,3.0,621.83079399983399,21.0,3.0,0.0
3001015911.0,0.0,4.0,1.0,4.0,996.0311479999292,21.0,3.0,1.0
3001015911.0,1.0,5.0,1.0,0.0,0.0,21.0,3.0,0.0
3001015911.0,0.0,1.0,1.0,1.0,457.84934199991801,23.0,5.0,0.0
3001015911.0,0.0,2.0,1.0,2.0,444.14235500016702,23.0,5.0,1.0
3001015911.0,1.0,3.0,1.0,0.0,344.44167699985002,23.0,5.0,0.0
3001015911.0,0.0,1.0,1.0,1.0,573.36277000013104,24.0,5.0,0.0
3001015911.0,0.0,2.0,1.0,2.0,364.91323300015205,24.0,5.0,0.0
3001015911.0,0.0,3.0,1.0,3.0,453.59777900012,24.0,5.0,1.0
3001015911.0,1.0,4.0,1.0,0.0,849.78421599998921,24.0,5.0,0.0
3001015911.0,0.0,1.0,1.0,1.0,465.69647300020699,25.0,5.0,0.0
3001015911.0,0.0,2.0,1.0,2.0,349.98790200006601,25.0,5.0,0.0
3001015911.0,0.0,3.0,1.0,3.0,547.13505900008397,25.0,5.0,1.0
3001015911.0,1.0,4.0,1.0,0.0,465.10971299994696,25.0,5.0,0.0
3001015911.0,0.0,1.0,1.0,1.0,485.65863900012107,26.0,5.0,0.0
3001015911.0,0.0,2.0,1.0,2.0,438.3433259999951,26.0,5.0,0.0
3001015911.0,0.0,3.0,1.0,3.0,464.14847899995897,26.0,5.0,1.0
3001015911.0,1.0,4.0,1.0,0.0,870.89186799994411,26.0,5.0,0.0
3001015911.0,0.0,1.0,1.0,1.0,491.17019099958293,29.0,5.0,0.0
3001015911.0,0.0,2.0,1.0,2.0,352.85562299986901,29.0,5.0,0.0
3001015911.0,0.0,3.0,1.0,3.0,552.24538499987796,29.0,5.0,1.0
3001015911.0,1.0,4.0,1.0,0.0,658.55319399997802,29.0,5.0,0.0
3001017111.0,0.0,1.0,1.0,1.0,374.15746200008505,4.0,5.0,0.0
3001017111.0,0.0,2.0,1.0,2.0,306.06165099993609,4.0,5.0,0.0
3001017111.0,0.0,3.0,1.0,3.0,269.81435600009701,4.0,5.0,0.0
3001017111.0,0.0,4.0,1.0,4.0,323.07130599997396,4.0,5.0,1.0
3001017111.0,1.0,5.0,1.0,0.0,274.43809900000804,4.0,5.0,0.0
3001017111.0,0.0,1.0,1.0,1.0,337.83608500004902,5.0,5.0,0.0
3001017111.0,0.0,2.0,1.0,2.0,260.67013800002303,5.0,5.0,0.0
3001017111.0,0.0,3.0,1.0,3.0,403.47268899995498,5.0,5.0,0.0
3001017111.0,0.0,4.0,1.0,4.0,319.07681699999608,5.0,5.0,0.0
3001017111.0,0.0,5.0,1.0,5.0,243.469109999978,5.0,5.0,1.0
3001017111.0,1.0,6.0,1.0,0.0,239.50526400005901,5.0,5.0,0.0
3001017111.0,0.0,1.0,1.0,1.0,272.14857599994997,6.0,5.0,0.0
3001017111.0,0.0,2.0,1.0,2.0,320.60563100003503,6.0,5.0,0.0
3001017111.0,0.0,3.0,1.0,3.0,276.177029999985,6.0,5.0,0.0
3001017111.0,0.0,4.0,1.0,4.0,279.07102999995499,6.0,5.0,0.0
3001017111.0,0.0,5.0,1.0,5.0,272.995291000029,6.0,5.0,0.0
3001017111.0,0.0,6.0,1.0,6.0,281.456632999948,6.0,5.0,0.0
3001017111.0,0.0,7.0,1.0,7.0,350.69297399991206,6.0,5.0,2.0
3001017111.0,0.0,8.0,0.0,8.0,654.54633500007708,6.0,5.0,0.0
3001017111.0,0.0,1.0,1.0,1.0,354.09304799998216,7.0,3.0,0.0
3001017111.0,0.0,2.0,1.0,2.0,257.38758199997801,7.0,3.0,0.0
3001017111.0,0.0,3.0,1.0,3.0,282.00903799995604,7.0,3.0,1.0
3001017111.0,1.0,4.0,1.0,0.0,0.0,7.0,3.0,0.0
3001017111.0,0.0,1.0,1.0,1.0,417.49843600007409,8.0,5.0,0.0
3001017111.0,0.0,2.0,1.0,2.0,244.54771599994299,8.0,5.0,0.0
3001017111.0,0.0,3.0,1.0,3.0,247.29675399999002,8.0,5.0,0.0
3001017111.0,0.0,4.0,1.0,4.0,245.12089899997102,8.0,5.0,1.0
3001017111.0,1.0,5.0,1.0,0.0,310.86995800001199,8.0,5.0,0.0
3001017111.0,0.0,1.0,1.0,1.0,473.03845399994799,10.0,5.0,0.0
3001017111.0,0.0,2.0,1.0,2.0,366.47604600000204,10.0,5.0,0.0
3001017111.0,0.0,3.0,1.0,3.0,302.431167000009,10.0,5.0,0.0
3001017111.0,0.0,4.0,1.0,4.0,350.18432599997595,10.0,5.0,0.0
3001017111.0,0.0,5.0,1.0,5.0,294.16147100005202,10.0,5.0,0.0
3001017111.0,0.0,6.0,1.0,6.0,299.09157500003397,10.0,5.0,1.0
3001017111.0,1.0,7.0,1.0,0.0,278.67286499997601,10.0,5.0,0.0
3001017111.0,0.0,1.0,1.0,1.0,345.14585500005501,11.0,5.0,0.0
3001017111.0,0.0,2.0,1.0,2.0,258.760149000068,11.0,5.0,0.0
3001017111.0,0.0,3.0,1.0,3.0,253.89014400002497,11.0,5.0,0.0
3001017111.0,0.0,4.0,1.0,4.0,230.61598499998604,11.0,5.0,0.0
3001017111.0,0.0,5.0,1.0,5.0,247.53459099997602,11.0,5.0,0.0
3001017111.0,0.0,6.0,1.0,6.0,263.06900299994101,11.0,5.0,0.0
3001017111.0,0.0,7.0,1.0,7.0,252.09674100005898,11.0,5.0,0.0
3001017111.0,0.0,8.0,1.0,8.0,295.75980799995699,11.0,5.0,1.0
3001017111.0,1.0,9.0,1.0,0.0,270.66033400001299,11.0,5.0,0.0
3001017111.0,0.0,1.0,1.0,1.0,319.79173299998797,12.0,5.0,0.0
3001017111.0,0.0,2.0,1.0,2.0,267.05997199997,12.0,5.0,0.0
3001017111.0,0.0,3.0,1.0,3.0,301.308769999991,12.0,5.0,0.0
3001017111.0,0.0,4.0,1.0,4.0,263.12867499996202,12.0,5.0,0.0
3001017111.0,0.0,5.0,1.0,5.0,313.21306700010604,12.0,5.0,0.0
3001017111.0,0.0,6.0,1.0,6.0,255.70644399999802,12.0,5.0,0.0
3001017111.0,0.0,7.0,1.0,7.0,264.13121200005202,12.0,5.0,0.0
3001017111.0,0.0,8.0,1.0,8.0,316.17033099996701,12.0,5.0,0.0
3001017111.0,0.0,9.0,1.0,9.0,270.67355999997699,12.0,5.0,0.0
3001017111.0,0.0,10.0,1.0,10.0,305.06890100002698,12.0,5.0,2.0
3001017111.0,0.0,11.0,0.0,11.0,252.877917000092,12.0,5.0,0.0
3001017111.0,0.0,1.0,1.0,1.0,262.74791299999799,13.0,3.0,0.0
3001017111.0,0.0,2.0,1.0,2.0,318.66848099991796,13.0,3.0,0.0
3001017111.0,0.0,3.0,1.0,3.0,320.66086399993304,13.0,3.0,0.0
3001017111.0,0.0,4.0,1.0,4.0,253.02043199997098,13.0,3.0,0.0
3001017111.0,0.0,5.0,1.0,5.0,290.17135900005502,13.0,3.0,0.0
3001017111.0,0.0,6.0,1.0,6.0,196.22111800003898,13.0,3.0,0.0
3001017111.0,0.0,7.0,1.0,7.0,231.34962500000702,13.0,3.0,0.0
3001017111.0,0.0,8.0,1.0,8.0,245.57603700009201,13.0,3.0,0.0
3001017111.0,0.0,9.0,1.0,9.0,294.61136600002601,13.0,3.0,0.0
3001017111.0,0.0,10.0,1.0,10.0,283.90642300007596,13.0,3.0,0.0
3001017111.0,0.0,11.0,1.0,11.0,233.74577999993599,13.0,3.0,0.0
3001017111.0,0.0,12.0,1.0,12.0,285.32782199999895,13.0,3.0,1.0
3001017111.0,1.0,13.0,1.0,0.0,0.0,13.0,3.0,0.0
3001017111.0,0.0,1.0,1.0,1.0,272.74320800006501,14.0,5.0,0.0
3001017111.0,0.0,2.0,1.0,2.0,263.04982399995004,14.0,5.0,0.0
3001017111.0,0.0,3.0,1.0,3.0,307.20338399999002,14.0,5.0,0.0
3001017111.0,0.0,4.0,1.0,4.0,286.87357399996898,14.0,5.0,0.0
3001017111.0,0.0,5.0,1.0,5.0,231.33132800000999,14.0,5.0,0.0
3001017111.0,0.0,6.0,1.0,6.0,230.38237799994502,14.0,5.0,1.0
3001017111.0,1.0,7.0,1.0,0.0,257.56395500002304,14.0,5.0,0.0
3001017111.0,0.0,1.0,1.0,1.0,297.74053500000304,15.0,5.0,0.0
3001017111.0,0.0,2.0,1.0,2.0,304.65464099995603,15.0,5.0,0.0
3001017111.0,0.0,3.0,1.0,3.0,285.38798299996398,15.0,5.0,0.0
3001017111.0,0.0,4.0,1.0,4.0,292.09662000005198,15.0,5.0,0.0
3001017111.0,0.0,5.0,1.0,5.0,247.04066200001805,15.0,5.0,0.0
3001017111.0,0.0,6.0,1.0,6.0,297.01449900005599,15.0,5.0,0.0
3001017111.0,0.0,7.0,1.0,7.0,286.145075000036,15.0,5.0,0.0
3001017111.0,0.0,8.0,1.0,8.0,248.74197700000897,15.0,5.0,2.0
3001017111.0,0.0,9.0,0.0,9.0,247.93367199993102,15.0,5.0,0.0
3001017111.0,0.0,1.0,1.0,1.0,308.44747399999113,20.0,3.0,0.0
3001017111.0,0.0,2.0,1.0,2.0,301.70203000000106,20.0,3.0,1.0
3001017111.0,1.0,3.0,1.0,0.0,0.0,20.0,3.0,0.0
3001017111.0,0.0,1.0,1.0,1.0,300.15123199996202,21.0,5.0,0.0
3001017111.0,0.0,2.0,1.0,2.0,323.07045799996104,21.0,5.0,2.0
3001017111.0,0.0,3.0,0.0,3.0,361.88083600006797,21.0,5.0,0.0
3001017111.0,0.0,1.0,1.0,1.0,382.04431199994798,23.0,3.0,0.0
3001017111.0,0.0,2.0,1.0,2.0,233.94609700005699,23.0,3.0,1.0
3001017111.0,1.0,3.0,1.0,0.0,0.0,23.0,3.0,0.0
3001017111.0,0.0,1.0,1.0,1.0,351.1653939999631,24.0,5.0,0.0
3001017111.0,0.0,2.0,1.0,2.0,350.67041700006007,24.0,5.0,0.0
3001017111.0,0.0,3.0,1.0,3.0,516.07943600004091,24.0,5.0,0.0
3001017111.0,0.0,4.0,1.0,4.0,336.26673000003399,24.0,5.0,2.0
3001017111.0,0.0,5.0,0.0,5.0,278.89513900004198,24.0,5.0,0.0
3001017111.0,0.0,1.0,1.0,1.0,454.08086599991304,25.0,3.0,0.0
3001017111.0,0.0,2.0,1.0,2.0,270.60786399988501,25.0,3.0,0.0
3001017111.0,0.0,3.0,1.0,3.0,327.08189100003398,25.0,3.0,1.0
3001017111.0,1.0,4.0,1.0,0.0,0.0,25.0,3.0,0.0
3001017111.0,0.0,1.0,1.0,1.0,1319.7586769999798,26.0,5.0,0.0
3001017111.0,0.0,2.0,1.0,2.0,294.75600799992196,26.0,5.0,0.0
3001017111.0,0.0,3.0,1.0,3.0,315.90738399995604,26.0,5.0,0.0
3001017111.0,0.0,4.0,1.0,4.0,270.969068000113,26.0,5.0,0.0
3001017111.0,0.0,5.0,1.0,5.0,246.79000299988698,26.0,5.0,0.0
3001017111.0,0.0,6.0,1.0,6.0,290.45274000009204,26.0,5.0,0.0
3001017111.0,0.0,7.0,1.0,7.0,301.76798200000104,26.0,5.0,0.0
3001020611.0,0.0,1.0,1.0,1.0,897.71438499997191,1.0,0.0,0.0
3001020611.0,0.0,2.0,1.0,2.0,498.598004999963,1.0,0.0,1.0
3001020611.0,1.0,3.0,1.0,0.0,0.0,1.0,0.0,0.0
3001020611.0,0.0,1.0,1.0,1.0,588.94221600007802,2.0,5.0,0.0
3001020611.0,0.0,2.0,1.0,2.0,338.44778799993895,2.0,5.0,0.0
3001020611.0,0.0,3.0,1.0,3.0,343.570967000005,2.0,5.0,0.0
3001020611.0,0.0,4.0,1.0,4.0,1340.0961459999498,2.0,5.0,0.0
3001020611.0,0.0,5.0,1.0,5.0,1016.55277399993,2.0,5.0,2.0
3001020611.0,0.0,6.0,0.0,6.0,549.30398199996898,2.0,5.0,0.0
3001020611.0,0.0,1.0,1.0,1.0,415.28124900003098,3.0,3.0,0.0
3001020611.0,0.0,2.0,1.0,2.0,283.06441299992002,3.0,3.0,1.0
3001020611.0,1.0,3.0,1.0,0.0,0.0,3.0,3.0,0.0
3001020611.0,0.0,1.0,1.0,1.0,354.780467000069,4.0,5.0,0.0
3001020611.0,0.0,2.0,1.0,2.0,395.68181900005999,4.0,5.0,0.0
3001020611.0,0.0,3.0,1.0,3.0,420.669871000086,4.0,5.0,0.0
3001020611.0,0.0,4.0,1.0,4.0,1078.1827160000098,4.0,5.0,1.0
3001020611.0,1.0,5.0,1.0,0.0,1069.5824770000399,4.0,5.0,0.0
3001020611.0,0.0,1.0,1.0,1.0,380.44005900007994,5.0,5.0,0.0
3001020611.0,0.0,2.0,1.0,2.0,495.26714699993602,5.0,5.0,0.0
3001020611.0,0.0,3.0,1.0,3.0,348.49545900010497,5.0,5.0,0.0
3001020611.0,0.0,4.0,1.0,4.0,704.63188099995489,5.0,5.0,0.0
3001020611.0,0.0,5.0,1.0,5.0,1079.4885259999801,5.0,5.0,1.0
3001020611.0,1.0,6.0,1.0,0.0,796.33448000004068,5.0,5.0,0.0
3001020611.0,0.0,1.0,1.0,1.0,454.64546800008094,8.0,5.0,0.0
3001020611.0,0.0,2.0,1.0,2.0,706.02678799991679,8.0,5.0,0.0
3001020611.0,0.0,3.0,1.0,3.0,378.51113900001099,8.0,5.0,0.0
3001020611.0,0.0,4.0,1.0,4.0,398.40056299999605,8.0,5.0,0.0
3001020611.0,0.0,5.0,1.0,5.0,1969.4472539999899,8.0,5.0,1.0
3001020611.0,1.0,6.0,1.0,0.0,720.34648500016419,8.0,5.0,0.0
3001020611.0,0.0,1.0,1.0,1.0,580.359689000034,12.0,5.0,0.0
3001020611.0,0.0,2.0,1.0,2.0,596.93394300006719,12.0,5.0,0.0
3001020611.0,0.0,3.0,1.0,3.0,343.04850500007007,12.0,5.0,0.0
3001020611.0,0.0,4.0,1.0,4.0,1161.8353739997901,12.0,5.0,0.0
3001020611.0,0.0,5.0,1.0,5.0,1735.4977810000501,12.0,5.0,1.0
3001020611.0,1.0,6.0,1.0,0.0,271.1166500000669,12.0,5.0,0.0
3001020611.0,0.0,1.0,1.0,1.0,2245.8854149999802,13.0,5.0,0.0
3001020611.0,0.0,2.0,1.0,2.0,402.52579600019112,13.0,5.0,0.0
3001020611.0,0.0,3.0,1.0,3.0,443.80461400010103,13.0,5.0,0.0
3001020611.0,0.0,4.0,1.0,4.0,467.51327700008005,13.0,5.0,1.0
3001020611.0,1.0,5.0,1.0,0.0,1308.53459200011,13.0,5.0,0.0
3001020611.0,0.0,1.0,1.0,1.0,284.603281999807,16.0,5.0,0.0
3001020611.0,0.0,2.0,1.0,2.0,297.45949400012296,16.0,5.0,0.0
3001020611.0,0.0,3.0,1.0,3.0,272.111453999969,16.0,5.0,0.0
3001020611.0,0.0,4.0,1.0,4.0,277.53675300004903,16.0,5.0,0.0
3001020611.0,0.0,5.0,1.0,5.0,270.35610400003003,16.0,5.0,0.0
3001020611.0,0.0,6.0,1.0,6.0,375.06674299993398,16.0,5.0,0.0
3001020611.0,0.0,7.0,1.0,7.0,739.7191440002191,16.0,5.0,0.0
3001020611.0,0.0,8.0,1.0,8.0,881.65004300003591,16.0,5.0,2.0
3001020611.0,0.0,9.0,0.0,9.0,1655.2031030000799,16.0,5.0,0.0
3001020611.0,0.0,1.0,1.0,1.0,611.6242750001669,19.0,3.0,0.0
3001020611.0,0.0,2.0,1.0,2.0,349.02642600013695,19.0,3.0,0.0
3001020611.0,0.0,3.0,1.0,3.0,487.35391899981596,19.0,3.0,2.0
3001020611.0,0.0,4.0,0.0,4.0,0.0,19.0,3.0,0.0
3001020611.0,0.0,1.0,1.0,1.0,764.433456999996,21.0,3.0,0.0
3001020611.0,0.0,2.0,1.0,2.0,395.41069300003113,21.0,3.0,0.0
3001020611.0,0.0,3.0,1.0,3.0,417.70508300010101,21.0,3.0,0.0
3001020611.0,0.0,4.0,1.0,4.0,312.74169099992804,21.0,3.0,2.0
3001020611.0,0.0,5.0,0.0,5.0,0.0,21.0,3.0,0.0
3001020611.0,0.0,1.0,1.0,1.0,348.63793300019097,22.0,3.0,0.0
3001020611.0,1.0,2.0,1.0,0.0,0.0,22.0,3.0,0.0
3001020611.0,0.0,1.0,1.0,1.0,422.03221399995499,23.0,5.0,0.0
3001020611.0,0.0,2.0,1.0,2.0,664.05980999979897,23.0,5.0,0.0
3001020611.0,0.0,3.0,1.0,3.0,426.31276399993112,23.0,5.0,0.0
3001020611.0,0.0,4.0,1.0,4.0,1289.13765900006,23.0,5.0,0.0
3001020611.0,0.0,5.0,1.0,5.0,1944.4169159999094,23.0,5.0,2.0
3001020611.0,0.0,6.0,0.0,6.0,706.78158999999073,23.0,5.0,0.0
3001020611.0,0.0,1.0,1.0,1.0,542.79740900005902,25.0,3.0,0.0
3001020611.0,0.0,2.0,1.0,2.0,1897.8976249998102,25.0,3.0,0.0
3001020611.0,0.0,3.0,1.0,3.0,553.9666940001099,25.0,3.0,0.0
3001020611.0,0.0,4.0,1.0,4.0,337.61856199998903,25.0,3.0,0.0
3001020611.0,0.0,5.0,1.0,5.0,311.71708800002301,25.0,3.0,2.0
3001020611.0,0.0,6.0,0.0,6.0,0.0,25.0,3.0,0.0
3001020611.0,0.0,1.0,1.0,1.0,632.02013800014413,26.0,3.0,0.0
3001020611.0,0.0,2.0,1.0,2.0,648.33580599997708,26.0,3.0,0.0
3001020611.0,0.0,3.0,1.0,3.0,549.9297209998989,26.0,3.0,1.0
3001020611.0,1.0,4.0,1.0,0.0,0.0,26.0,3.0,0.0
3001020611.0,0.0,1.0,0.0,1.0,615.56950299996106,28.0,5.0,0.0
3001020611.0,0.0,1.0,1.0,1.0,399.65687299991288,29.0,3.0,0.0
3001020611.0,0.0,2.0,1.0,2.0,233.42268700002896,29.0,3.0,0.0
3001020611.0,0.0,3.0,1.0,3.0,25.551266000093197,29.0,3.0,0.0
3001020611.0,0.0,4.0,1.0,4.0,379.86932799981287,29.0,3.0,0.0
3001020611.0,0.0,5.0,1.0,5.0,2189.9363189998003,29.0,3.0,0.0
3001020611.0,0.0,6.0,1.0,6.0,793.42325699985781,29.0,3.0,0.0
3001020611.0,0.0,7.0,1.0,7.0,796.32608199994991,29.0,3.0,1.0
3001020611.0,1.0,8.0,1.0,0.0,0.0,29.0,3.0,0.0
3001021711.0,0.0,1.0,1.0,1.0,259.38261700002801,4.0,5.0,0.0
3001021711.0,0.0,2.0,1.0,2.0,200.67838200020611,4.0,5.0,0.0
3001021711.0,0.0,3.0,1.0,3.0,236.38744500021903,4.0,5.0,1.0
3001021711.0,1.0,4.0,1.0,0.0,871.67182299981494,4.0,5.0,0.0
3001021711.0,0.0,1.0,1.0,1.0,266.43063700021196,5.0,5.0,0.0
3001021711.0,0.0,2.0,1.0,2.0,244.67456299999,5.0,5.0,0.0
3001021711.0,0.0,3.0,1.0,3.0,290.12511499968201,5.0,5.0,0.0
3001021711.0,0.0,4.0,1.0,4.0,299.12883900033199,5.0,5.0,1.0
3001021711.0,1.0,5.0,1.0,0.0,376.82266499996291,5.0,5.0,0.0
3001021711.0,0.0,1.0,1.0,1.0,296.74513500003701,6.0,5.0,0.0
3001021711.0,0.0,2.0,1.0,2.0,227.39385700015202,6.0,5.0,0.0
3001021711.0,0.0,3.0,1.0,3.0,270.34480299971602,6.0,5.0,0.0
3001021711.0,0.0,4.0,1.0,4.0,377.62345700002714,6.0,5.0,2.0
3001021711.0,0.0,5.0,0.0,5.0,246.38243000026699,6.0,5.0,0.0
3001021711.0,0.0,1.0,1.0,1.0,258.20434100023704,8.0,3.0,0.0
3001021711.0,0.0,2.0,1.0,2.0,270.26426100019296,8.0,3.0,1.0
3001021711.0,1.0,3.0,1.0,0.0,0.0,8.0,3.0,0.0
3001021711.0,0.0,1.0,1.0,1.0,316.58389499989397,12.0,5.0,0.0
3001021711.0,0.0,2.0,1.0,2.0,237.42975599998297,12.0,5.0,0.0
3001021711.0,0.0,3.0,1.0,3.0,272.98985400011605,12.0,5.0,0.0
3001021711.0,0.0,4.0,1.0,4.0,426.06577500009706,12.0,5.0,1.0
3001021711.0,1.0,5.0,1.0,0.0,588.56448000005889,12.0,5.0,0.0
3001021711.0,0.0,1.0,1.0,1.0,303.87503199972303,13.0,5.0,0.0
3001021711.0,0.0,2.0,1.0,2.0,237.47703299977695,13.0,5.0,0.0
3001021711.0,0.0,3.0,1.0,3.0,266.294320999805,13.0,5.0,0.0
3001021711.0,0.0,4.0,1.0,4.0,396.90055799974294,13.0,5.0,0.0
3001021711.0,0.0,5.0,1.0,5.0,523.52955300011706,13.0,5.0,2.0
3001021711.0,0.0,6.0,0.0,6.0,328.98841600035701,13.0,5.0,0.0
3001021711.0,0.0,1.0,1.0,1.0,337.77715999986009,14.0,3.0,0.0
3001021711.0,0.0,2.0,1.0,2.0,279.60369100037497,14.0,3.0,0.0
3001021711.0,0.0,3.0,1.0,3.0,291.52664999992305,14.0,3.0,0.0
3001021711.0,0.0,4.0,1.0,4.0,354.963193999993,14.0,3.0,0.0
3001021711.0,0.0,5.0,1.0,5.0,617.1871709998411,14.0,3.0,0.0
3001021711.0,0.0,6.0,1.0,6.0,1074.3643370001298,14.0,3.0,1.0
3001021711.0,1.0,7.0,1.0,0.0,0.0,14.0,3.0,0.0
3001021711.0,0.0,1.0,1.0,1.0,376.47796900000696,15.0,5.0,0.0
3001021711.0,0.0,2.0,1.0,2.0,246.552638999674,15.0,5.0,0.0
3001021711.0,0.0,3.0,1.0,3.0,251.81664999991,15.0,5.0,0.0
3001021711.0,0.0,4.0,1.0,4.0,335.30333800035805,15.0,5.0,2.0
3001021711.0,0.0,5.0,0.0,5.0,300.84745100020899,15.0,5.0,0.0
3001021711.0,0.0,1.0,1.0,1.0,362.04017199997901,16.0,3.0,0.0
3001021711.0,0.0,2.0,1.0,2.0,272.51229400007998,16.0,3.0,0.0
3001021711.0,0.0,3.0,1.0,3.0,257.92476100013999,16.0,3.0,0.0
3001021711.0,0.0,4.0,1.0,4.0,249.42707499985801,16.0,3.0,0.0
3001021711.0,0.0,5.0,1.0,5.0,518.11372199972493,16.0,3.0,1.0
3001021711.0,1.0,6.0,1.0,0.0,0.0,16.0,3.0,0.0
3001021711.0,0.0,1.0,1.0,1.0,222.74300700018998,17.0,5.0,0.0
3001021711.0,0.0,2.0,1.0,2.0,315.223104999859,17.0,5.0,0.0
3001021711.0,0.0,3.0,1.0,3.0,299.40418599972003,17.0,5.0,0.0
3001021711.0,0.0,4.0,1.0,4.0,250.260382999841,17.0,5.0,1.0
3001021711.0,1.0,5.0,1.0,0.0,312.11989999974298,17.0,5.0,0.0
3001021711.0,0.0,1.0,1.0,1.0,327.21321100007106,19.0,5.0,0.0
3001021711.0,0.0,2.0,1.0,2.0,258.27539200008704,19.0,5.0,0.0
3001021711.0,0.0,3.0,1.0,3.0,243.77504799986104,19.0,5.0,0.0
3001021711.0,0.0,4.0,1.0,4.0,282.86878400012887,19.0,5.0,0.0
3001021711.0,0.0,5.0,1.0,5.0,386.74913899967606,19.0,5.0,0.0
3001021711.0,0.0,6.0,1.0,6.0,704.69946499997604,19.0,5.0,0.0
3001021711.0,0.0,7.0,1.0,7.0,834.32686000014689,19.0,5.0,0.0
3001021711.0,0.0,8.0,1.0,8.0,513.294865999796,19.0,5.0,0.0
3001021711.0,0.0,9.0,1.0,9.0,903.9679470001829,19.0,5.0,1.0
3001021711.0,1.0,10.0,1.0,0.0,442.82374699969301,19.0,5.0,0.0
3001021711.0,0.0,1.0,1.0,1.0,323.34831299976895,20.0,5.0,0.0
3001021711.0,0.0,2.0,1.0,2.0,286.94501200016003,20.0,5.0,0.0
3001021711.0,0.0,3.0,1.0,3.0,261.47947800018301,20.0,5.0,0.0
3001021711.0,0.0,4.0,1.0,4.0,311.83722799960401,20.0,5.0,0.0
3001021711.0,0.0,5.0,1.0,5.0,288.91337000004609,20.0,5.0,0.0
3001021711.0,0.0,6.0,1.0,6.0,562.02129999974193,20.0,5.0,2.0
3001021711.0,0.0,7.0,0.0,7.0,542.91001999990795,20.0,5.0,0.0
3001021711.0,0.0,1.0,1.0,1.0,261.51256800039801,21.0,3.0,0.0
3001021711.0,0.0,2.0,0.0,2.0,0.0,21.0,3.0,0.0
3001021711.0,0.0,1.0,1.0,1.0,525.64933699977701,24.0,3.0,0.0
3001021711.0,1.0,2.0,1.0,0.0,0.0,24.0,3.0,0.0
3001021711.0,0.0,1.0,1.0,1.0,348.66417299963399,25.0,5.0,0.0
3001021711.0,0.0,2.0,1.0,2.0,262.41256100001897,25.0,5.0,0.0
3001021711.0,0.0,3.0,1.0,3.0,245.64121499997799,25.0,5.0,0.0
3001021711.0,0.0,4.0,1.0,4.0,233.40705800001203,25.0,5.0,0.0
3001021711.0,0.0,5.0,1.0,5.0,388.55125300006006,25.0,5.0,2.0
3001021711.0,0.0,6.0,0.0,6.0,342.70383900002298,25.0,5.0,0.0
3001021711.0,0.0,1.0,1.0,1.0,346.0904559997291,27.0,3.0,0.0
3001021711.0,0.0,2.0,1.0,2.0,278.56839100013502,27.0,3.0,0.0
3001021711.0,0.0,3.0,1.0,3.0,287.43269299957296,27.0,3.0,0.0
3001021711.0,0.0,4.0,1.0,4.0,0.0,27.0,3.0,0.0
3001022711.0,0.0,1.0,1.0,1.0,922.23503199989,1.0,0.0,0.0
3001022711.0,0.0,2.0,1.0,2.0,902.37905200001524,1.0,0.0,0.0
3001022711.0,0.0,3.0,1.0,3.0,483.50569600006605,1.0,0.0,0.0
3001022711.0,0.0,4.0,1.0,4.0,453.98463999981698,1.0,0.0,0.0
3001022711.0,0.0,5.0,1.0,5.0,476.50492699995101,1.0,0.0,2.0
3001022711.0,0.0,6.0,0.0,6.0,368.65867400001707,1.0,0.0,0.0
3001022711.0,0.0,1.0,1.0,1.0,911.66589800013799,3.0,3.0,0.0
3001022711.0,0.0,2.0,1.0,2.0,624.335864999921,3.0,3.0,0.0
3001022711.0,0.0,3.0,1.0,3.0,391.40366900005603,3.0,3.0,0.0
3001022711.0,0.0,4.0,1.0,4.0,308.93190000006109,3.0,3.0,0.0
3001022711.0,0.0,5.0,1.0,5.0,407.97341200004718,3.0,3.0,1.0
3001022711.0,1.0,6.0,1.0,0.0,0.0,3.0,3.0,0.0
3001022711.0,0.0,1.0,1.0,1.0,530.33250299995404,4.0,5.0,0.0
3001022711.0,0.0,2.0,1.0,2.0,354.55425999998596,4.0,5.0,0.0
3001022711.0,0.0,3.0,1.0,3.0,477.40725099993102,4.0,5.0,0.0
3001022711.0,0.0,4.0,1.0,4.0,380.10446099997404,4.0,5.0,0.0
3001022711.0,0.0,5.0,1.0,5.0,447.15286600012399,4.0,5.0,0.0
3001022711.0,0.0,6.0,1.0,6.0,475.40510999988294,4.0,5.0,0.0
3001022711.0,0.0,7.0,1.0,7.0,346.61511300009806,4.0,5.0,2.0
3001022711.0,0.0,8.0,0.0,8.0,414.72379300012102,4.0,5.0,0.0
3001022711.0,0.0,1.0,1.0,1.0,426.13996600016401,5.0,3.0,0.0
3001022711.0,0.0,2.0,1.0,2.0,404.52363100007517,5.0,3.0,0.0
3001022711.0,0.0,3.0,1.0,3.0,426.29380499988719,5.0,3.0,0.0
3001022711.0,0.0,4.0,1.0,4.0,617.39501500005599,5.0,3.0,0.0
3001022711.0,0.0,5.0,1.0,5.0,463.50289699989781,5.0,3.0,2.0
3001022711.0,0.0,6.0,0.0,6.0,0.0,5.0,3.0,0.0
3001022711.0,0.0,1.0,1.0,1.0,396.02647900005599,6.0,3.0,0.0
3001022711.0,0.0,2.0,1.0,2.0,298.01567699996701,6.0,3.0,0.0
3001022711.0,0.0,3.0,1.0,3.0,285.58758600002005,6.0,3.0,0.0
3001022711.0,0.0,4.0,1.0,4.0,652.92211299993107,6.0,3.0,0.0
3001022711.0,0.0,5.0,1.0,5.0,451.77266399991788,6.0,3.0,0.0
3001022711.0,0.0,6.0,1.0,6.0,422.71831599987297,6.0,3.0,1.0
3001022711.0,1.0,7.0,1.0,0.0,0.0,6.0,3.0,0.0
3001022711.0,0.0,1.0,1.0,1.0,495.819130999962,7.0,5.0,0.0
3001022711.0,0.0,2.0,1.0,2.0,360.87950599994713,7.0,5.0,0.0
3001022711.0,0.0,3.0,1.0,3.0,451.30263999999397,7.0,5.0,0.0
3001022711.0,0.0,4.0,1.0,4.0,534.62078600000507,7.0,5.0,0.0
3001022711.0,0.0,5.0,1.0,5.0,573.19112499999392,7.0,5.0,2.0
3001022711.0,0.0,6.0,0.0,6.0,440.04511000002793,7.0,5.0,0.0
3001022711.0,0.0,1.0,1.0,1.0,723.85758800010103,10.0,3.0,0.0
3001022711.0,0.0,2.0,1.0,2.0,327.16917600009805,10.0,3.0,0.0
3001022711.0,0.0,3.0,1.0,3.0,481.46924699995003,10.0,3.0,0.0
3001022711.0,0.0,4.0,1.0,4.0,458.79727800002001,10.0,3.0,1.0
3001022711.0,1.0,5.0,1.0,0.0,0.0,10.0,3.0,0.0
3001022711.0,0.0,1.0,1.0,1.0,473.67097199980901,12.0,5.0,0.0
3001022711.0,0.0,2.0,1.0,2.0,402.44606000010214,12.0,5.0,0.0
3001022711.0,0.0,3.0,1.0,3.0,311.49705799998605,12.0,5.0,0.0
3001022711.0,0.0,4.0,1.0,4.0,266.96410599993197,12.0,5.0,0.0
3001022711.0,0.0,5.0,1.0,5.0,302.31265599991309,12.0,5.0,2.0
3001022711.0,0.0,6.0,0.0,6.0,380.66176400002405,12.0,5.0,0.0
3001022711.0,0.0,1.0,1.0,1.0,383.18685200010805,14.0,3.0,0.0
3001022711.0,0.0,2.0,0.0,2.0,0.0,14.0,3.0,0.0
3001022711.0,0.0,1.0,1.0,1.0,402.79541700010697,15.0,3.0,0.0
3001022711.0,0.0,2.0,0.0,2.0,0.0,15.0,3.0,0.0
3001022711.0,0.0,1.0,1.0,1.0,950.75113899997609,17.0,3.0,0.0
3001022711.0,0.0,2.0,1.0,2.0,633.17792700013297,17.0,3.0,0.0
3001022711.0,0.0,3.0,1.0,3.0,481.07675100004599,17.0,3.0,0.0
3001022711.0,0.0,4.0,1.0,4.0,314.12027200008202,17.0,3.0,0.0
3001022711.0,0.0,5.0,1.0,5.0,380.43239100011294,17.0,3.0,2.0
3001022711.0,0.0,6.0,0.0,6.0,0.0,17.0,3.0,0.0
3001022711.0,0.0,1.0,1.0,1.0,690.0485620001291,19.0,3.0,0.0
3001022711.0,0.0,2.0,0.0,2.0,0.0,19.0,3.0,0.0
3001022711.0,0.0,1.0,1.0,1.0,581.61705799989193,20.0,3.0,0.0
3001022711.0,0.0,2.0,1.0,2.0,398.70295400010002,20.0,3.0,0.0
3001022711.0,0.0,3.0,1.0,3.0,314.15195099998499,20.0,3.0,0.0
3001022711.0,0.0,4.0,1.0,4.0,324.23863799999697,20.0,3.0,0.0
3001022711.0,0.0,5.0,1.0,5.0,356.86406199988602,20.0,3.0,2.0
3001022711.0,0.0,6.0,0.0,6.0,0.0,20.0,3.0,0.0
3001022711.0,0.0,1.0,1.0,1.0,661.12541799998291,21.0,3.0,0.0
3001022711.0,0.0,2.0,1.0,2.0,513.48321699992994,21.0,3.0,0.0
3001022711.0,0.0,3.0,1.0,3.0,288.20668499997691,21.0,3.0,0.0
3001022711.0,0.0,4.0,1.0,4.0,290.39078799996798,21.0,3.0,0.0
3001022711.0,0.0,5.0,1.0,5.0,258.78988299996297,21.0,3.0,0.0
3001022711.0,0.0,6.0,1.0,6.0,737.54131900000232,21.0,3.0,2.0
3001022711.0,0.0,7.0,0.0,7.0,0.0,21.0,3.0,0.0
3001022711.0,0.0,1.0,1.0,1.0,464.39426100005204,23.0,3.0,0.0
3001022711.0,0.0,2.0,1.0,2.0,285.381329999836,23.0,3.0,1.0
3001022711.0,1.0,3.0,1.0,0.0,0.0,23.0,3.0,0.0
3001022711.0,0.0,1.0,1.0,1.0,650.34916399963481,24.0,5.0,0.0
3001022711.0,0.0,2.0,1.0,2.0,345.97729100005404,24.0,5.0,0.0
3001022711.0,0.0,3.0,1.0,3.0,532.91882700023098,24.0,5.0,0.0
3001022711.0,0.0,4.0,1.0,4.0,252.32208599982201,24.0,5.0,1.0
3001022711.0,1.0,5.0,1.0,0.0,362.23779500005503,24.0,5.0,0.0
3001022711.0,0.0,1.0,1.0,1.0,369.25661200029901,25.0,5.0,0.0
3001022711.0,0.0,2.0,1.0,2.0,265.94170299995301,25.0,5.0,0.0
3001022711.0,0.0,3.0,1.0,3.0,529.92234799967298,25.0,5.0,0.0
3001022711.0,0.0,4.0,1.0,4.0,258.71957800018203,25.0,5.0,0.0
3001022711.0,0.0,5.0,1.0,5.0,284.80336000029598,25.0,5.0,2.0
3001022711.0,0.0,6.0,0.0,6.0,425.96198299997911,25.0,5.0,0.0
3001022711.0,0.0,1.0,1.0,1.0,377.09347300005896,26.0,3.0,0.0
3001022711.0,0.0,2.0,1.0,2.0,954.61937400023101,26.0,3.0,0.0
3001022711.0,0.0,3.0,1.0,3.0,789.35646899981293,26.0,3.0,1.0
3001022711.0,1.0,4.0,1.0,0.0,0.0,26.0,3.0,0.0
3001022711.0,0.0,1.0,1.0,1.0,485.41873500016709,27.0,5.0,0.0
3001022711.0,0.0,2.0,1.0,2.0,410.6802259998401,27.0,5.0,0.0
3001022711.0,0.0,3.0,1.0,3.0,354.22243099992602,27.0,5.0,0.0
3001022711.0,0.0,4.0,1.0,4.0,421.67189399970101,27.0,5.0,2.0
3001022711.0,0.0,5.0,0.0,5.0,355.27672300031611,27.0,5.0,0.0
3001022811.0,0.0,1.0,1.0,1.0,586.91392099990503,2.0,3.0,0.0
3001022811.0,0.0,2.0,1.0,2.0,430.83114799992501,2.0,3.0,0.0
3001022811.0,0.0,3.0,1.0,3.0,800.56071499984728,2.0,3.0,1.0
3001022811.0,1.0,4.0,1.0,0.0,0.0,2.0,3.0,0.0
3001022811.0,0.0,1.0,1.0,1.0,639.90407599976595,3.0,5.0,0.0
3001022811.0,0.0,2.0,1.0,2.0,571.09175299956394,3.0,5.0,0.0
3001022811.0,0.0,3.0,1.0,3.0,841.17694799988419,3.0,5.0,1.0
3001022811.0,1.0,4.0,1.0,0.0,1249.0760270002302,3.0,5.0,0.0
3001022811.0,0.0,1.0,1.0,1.0,673.70894900022893,4.0,5.0,0.0
3001022811.0,0.0,2.0,1.0,2.0,551.11247300010302,4.0,5.0,0.0
3001022811.0,0.0,3.0,1.0,3.0,638.24414299961097,4.0,5.0,0.0
3001022811.0,0.0,4.0,1.0,4.0,1003.1901399997901,4.0,5.0,1.0
3001022811.0,1.0,5.0,1.0,0.0,1634.38871000017,4.0,5.0,0.0
3001022811.0,0.0,1.0,1.0,1.0,600.76747999983104,5.0,5.0,0.0
3001022811.0,0.0,2.0,1.0,2.0,783.39180200009719,5.0,5.0,0.0
3001022811.0,0.0,3.0,1.0,3.0,1292.4822129998602,5.0,5.0,0.0
3001022811.0,0.0,4.0,1.0,4.0,617.15320000030317,5.0,5.0,1.0
3001022811.0,1.0,5.0,1.0,0.0,707.09729400004994,5.0,5.0,0.0
3001022811.0,0.0,1.0,1.0,1.0,496.06155299989007,6.0,5.0,0.0
3001022811.0,0.0,2.0,1.0,2.0,388.471979999849,6.0,5.0,0.0
3001022811.0,0.0,3.0,1.0,3.0,733.26251100024786,6.0,5.0,0.0
3001022811.0,0.0,4.0,1.0,4.0,636.43673000024091,6.0,5.0,0.0
3001022811.0,0.0,5.0,1.0,5.0,783.39557100025593,6.0,5.0,1.0
3001022811.0,1.0,6.0,1.0,0.0,1336.7352959999198,6.0,5.0,0.0
3001022811.0,0.0,1.0,1.0,1.0,758.62400999994918,9.0,5.0,0.0
3001022811.0,0.0,2.0,1.0,2.0,619.86443400019198,9.0,5.0,0.0
3001022811.0,0.0,3.0,1.0,3.0,567.20166400009498,9.0,5.0,0.0
3001022811.0,0.0,4.0,1.0,4.0,619.4184369996949,9.0,5.0,0.0
3001022811.0,0.0,5.0,1.0,5.0,1320.8137369997498,9.0,5.0,1.0
3001022811.0,1.0,6.0,1.0,0.0,1375.1819609997303,9.0,5.0,0.0
3001022811.0,0.0,1.0,1.0,1.0,678.2088959998872,12.0,5.0,0.0
3001022811.0,0.0,2.0,1.0,2.0,1207.8833270002199,12.0,5.0,0.0
3001022811.0,0.0,3.0,1.0,3.0,690.86107500015692,12.0,5.0,0.0
3001022811.0,0.0,4.0,1.0,4.0,1106.0605060001801,12.0,5.0,0.0
3001022811.0,0.0,5.0,1.0,5.0,767.01861599985898,12.0,5.0,0.0
3001022811.0,0.0,6.0,1.0,6.0,1386.45005999979,12.0,5.0,1.0
3001022811.0,1.0,7.0,1.0,0.0,600.28876100022899,12.0,5.0,0.0
3001022811.0,0.0,1.0,1.0,1.0,819.08460699969498,13.0,5.0,0.0
3001022811.0,0.0,2.0,1.0,2.0,502.38884200007294,13.0,5.0,0.0
3001022811.0,0.0,3.0,1.0,3.0,486.83965100008203,13.0,5.0,0.0
3001022811.0,0.0,4.0,1.0,4.0,882.60437600001796,13.0,5.0,0.0
3001022811.0,0.0,5.0,1.0,5.0,509.6522079998071,13.0,5.0,2.0
3001022811.0,0.0,6.0,0.0,6.0,733.89163199999496,13.0,5.0,0.0
3001022811.0,0.0,1.0,1.0,1.0,604.46396299994399,15.0,3.0,0.0
3001022811.0,0.0,2.0,0.0,2.0,0.0,15.0,3.0,0.0
3001022811.0,0.0,1.0,1.0,1.0,496.16052600003997,17.0,3.0,0.0
3001022811.0,0.0,2.0,1.0,2.0,336.10159699992403,17.0,3.0,0.0
3001022811.0,0.0,3.0,1.0,3.0,425.46367499971899,17.0,3.0,1.0
3001022811.0,1.0,4.0,1.0,0.0,0.0,17.0,3.0,0.0
3001022811.0,0.0,1.0,1.0,1.0,538.20729500011998,19.0,5.0,0.0
3001022811.0,0.0,2.0,1.0,2.0,425.85653100013604,19.0,5.0,0.0
3001022811.0,0.0,3.0,1.0,3.0,717.74351400017588,19.0,5.0,0.0
3001022811.0,0.0,4.0,1.0,4.0,1439.4109139998404,19.0,5.0,1.0
3001022811.0,1.0,5.0,1.0,0.0,589.28734000028294,19.0,5.0,0.0
3001022811.0,0.0,1.0,1.0,1.0,429.24607900022204,21.0,5.0,0.0
3001022811.0,0.0,2.0,1.0,2.0,393.24874799967796,21.0,5.0,0.0
3001022811.0,0.0,3.0,1.0,3.0,417.28195399991796,21.0,5.0,0.0
3001022811.0,0.0,4.0,1.0,4.0,854.14624699979004,21.0,5.0,0.0
3001022811.0,0.0,5.0,1.0,5.0,745.61981200031414,21.0,5.0,1.0
3001022811.0,1.0,6.0,1.0,0.0,466.98952699989599,21.0,5.0,0.0
3001022811.0,0.0,1.0,1.0,1.0,502.473369000199,22.0,5.0,0.0
3001022811.0,0.0,2.0,1.0,2.0,362.04237199990501,22.0,5.0,0.0
3001022811.0,0.0,3.0,1.0,3.0,437.56683599986002,22.0,5.0,0.0
3001022811.0,0.0,4.0,1.0,4.0,570.22299099981001,22.0,5.0,0.0
3001022811.0,0.0,5.0,1.0,5.0,602.79183700004091,22.0,5.0,1.0
3001022811.0,1.0,6.0,1.0,0.0,703.30749499999013,22.0,5.0,0.0
3001022811.0,0.0,1.0,1.0,1.0,524.07873800029802,23.0,5.0,0.0
3001022811.0,0.0,2.0,1.0,2.0,281.25420700007504,23.0,5.0,0.0
3001022811.0,0.0,3.0,1.0,3.0,439.71564100002092,23.0,5.0,0.0
3001022811.0,0.0,4.0,1.0,4.0,644.63391599974796,23.0,5.0,1.0
3001022811.0,1.0,5.0,1.0,0.0,437.97525299987711,23.0,5.0,0.0
3001022811.0,0.0,1.0,1.0,1.0,868.19719599998291,24.0,5.0,0.0
3001022811.0,0.0,2.0,1.0,2.0,510.14148900003403,24.0,5.0,0.0
3001022811.0,0.0,3.0,1.0,3.0,637.05758900005094,24.0,5.0,0.0
3001022811.0,0.0,4.0,1.0,4.0,587.67021199992109,24.0,5.0,0.0
3001022811.0,0.0,5.0,1.0,5.0,662.54459900028507,24.0,5.0,0.0
3001022811.0,0.0,6.0,1.0,6.0,1307.7390620001104,24.0,5.0,1.0
3001022811.0,1.0,7.0,1.0,0.0,612.11362899984999,24.0,5.0,0.0
3001022811.0,0.0,1.0,1.0,1.0,441.37074699983702,25.0,5.0,0.0
3001022811.0,0.0,2.0,1.0,2.0,421.41758400021001,25.0,5.0,0.0
3001022811.0,0.0,3.0,1.0,3.0,404.33334399995096,25.0,5.0,0.0
3001022811.0,0.0,4.0,1.0,4.0,455.652545999783,25.0,5.0,0.0
3001022811.0,0.0,5.0,1.0,5.0,451.24555700022,25.0,5.0,0.0
3001022811.0,0.0,6.0,1.0,6.0,980.73494900018011,25.0,5.0,1.0
3001022811.0,1.0,7.0,1.0,0.0,710.28014000012297,25.0,5.0,0.0
3001022811.0,0.0,1.0,1.0,1.0,471.70723399995001,26.0,5.0,0.0
3001022811.0,0.0,2.0,1.0,2.0,395.64161199996295,26.0,5.0,0.0
3001022811.0,0.0,3.0,1.0,3.0,456.11940199978602,26.0,5.0,0.0
3001022811.0,0.0,4.0,1.0,4.0,419.93872800003402,26.0,5.0,0.0
3001022811.0,0.0,5.0,1.0,5.0,388.94652099998001,26.0,5.0,0.0
3001022811.0,0.0,6.0,1.0,6.0,762.09879499992905,26.0,5.0,1.0
3001022811.0,1.0,7.0,1.0,0.0,1128.2273209999398,26.0,5.0,0.0
3001022811.0,0.0,1.0,1.0,1.0,555.93330000010599,27.0,5.0,0.0
3001022811.0,0.0,2.0,1.0,2.0,1050.9412500000501,27.0,5.0,0.0
3001022811.0,0.0,3.0,1.0,3.0,510.27837199990194,27.0,5.0,0.0
3001022811.0,0.0,4.0,1.0,4.0,342.22577099990309,27.0,5.0,0.0
3001022811.0,0.0,5.0,1.0,5.0,774.64818599992202,27.0,5.0,0.0
3001022811.0,0.0,6.0,1.0,6.0,726.87374600036503,27.0,5.0,0.0
3001022811.0,0.0,7.0,1.0,7.0,638.14287099967305,27.0,5.0,0.0
3001022811.0,0.0,8.0,1.0,8.0,1570.6515379997702,27.0,5.0,0.0
3001022811.0,0.0,9.0,1.0,9.0,1684.1412979997599,27.0,5.0,0.0
3001026911.0,0.0,1.0,1.0,1.0,683.05854799996303,1.0,0.0,0.0
3001026911.0,0.0,2.0,1.0,2.0,389.06576900012601,1.0,0.0,0.0
3001026911.0,0.0,3.0,1.0,3.0,438.66167900000602,1.0,0.0,2.0
3001026911.0,0.0,4.0,0.0,4.0,0.0,1.0,0.0,0.0
3001026911.0,0.0,1.0,1.0,1.0,435.54056400012092,3.0,3.0,0.0
3001026911.0,0.0,2.0,1.0,2.0,314.72721900013295,3.0,3.0,0.0
3001026911.0,0.0,3.0,1.0,3.0,332.54580699986002,3.0,3.0,1.0
3001026911.0,1.0,4.0,1.0,0.0,0.0,3.0,3.0,0.0
3001026911.0,0.0,1.0,1.0,1.0,305.21919800003195,4.0,5.0,0.0
3001026911.0,0.0,2.0,1.0,2.0,266.32215399990901,4.0,5.0,0.0
3001026911.0,0.0,3.0,1.0,3.0,363.80435800015198,4.0,5.0,2.0
3001026911.0,0.0,4.0,0.0,4.0,418.72523700021713,4.0,5.0,0.0
3001026911.0,0.0,1.0,1.0,1.0,308.63314799989899,5.0,3.0,0.0
3001026911.0,0.0,2.0,1.0,2.0,310.72922100020196,5.0,3.0,0.0
3001026911.0,0.0,3.0,1.0,3.0,486.04716999989296,5.0,3.0,0.0
3001026911.0,0.0,4.0,1.0,4.0,298.23566100003495,5.0,3.0,1.0
3001026911.0,1.0,5.0,1.0,0.0,0.0,5.0,3.0,0.0
3001026911.0,0.0,1.0,1.0,1.0,383.32680499979705,7.0,5.0,0.0
3001026911.0,0.0,2.0,1.0,2.0,356.198194999934,7.0,5.0,0.0
3001026911.0,0.0,3.0,1.0,3.0,361.50850700005304,7.0,5.0,0.0
3001026911.0,0.0,4.0,1.0,4.0,326.247928999919,7.0,5.0,0.0
3001026911.0,0.0,5.0,1.0,5.0,401.60461099981109,7.0,5.0,2.0
3001026911.0,0.0,6.0,0.0,6.0,310.27991899986802,7.0,5.0,0.0
3001026911.0,0.0,1.0,1.0,1.0,392.94706400005504,8.0,3.0,0.0
3001026911.0,1.0,2.0,1.0,0.0,0.0,8.0,3.0,0.0
3001026911.0,0.0,1.0,1.0,1.0,348.90589900010099,9.0,5.0,0.0
3001026911.0,0.0,2.0,1.0,2.0,340.17344800008703,9.0,5.0,0.0
3001026911.0,0.0,3.0,1.0,3.0,364.22014799995799,9.0,5.0,0.0
3001026911.0,0.0,4.0,1.0,4.0,373.52201500016207,9.0,5.0,0.0
3001026911.0,0.0,5.0,1.0,5.0,644.08686399997396,9.0,5.0,1.0
3001026911.0,1.0,6.0,1.0,0.0,440.92088100001098,9.0,5.0,0.0
3001026911.0,0.0,1.0,1.0,1.0,545.1538869999689,10.0,5.0,0.0
3001026911.0,0.0,2.0,1.0,2.0,339.35072700001001,10.0,5.0,0.0
3001026911.0,0.0,3.0,1.0,3.0,344.18730599986702,10.0,5.0,0.0
3001026911.0,0.0,4.0,1.0,4.0,628.938430000062,10.0,5.0,0.0
3001026911.0,0.0,5.0,1.0,5.0,298.747697999943,10.0,5.0,0.0
3001026911.0,0.0,6.0,1.0,6.0,331.65601099995001,10.0,5.0,0.0
3001026911.0,0.0,7.0,1.0,7.0,1208.5657120001101,10.0,5.0,2.0
3001026911.0,0.0,8.0,0.0,8.0,356.38711699994002,10.0,5.0,0.0
3001026911.0,0.0,1.0,1.0,1.0,293.446175000099,11.0,3.0,0.0
3001026911.0,0.0,2.0,1.0,2.0,298.580153000103,11.0,3.0,0.0
3001026911.0,0.0,3.0,1.0,3.0,280.89640600001098,11.0,3.0,0.0
3001026911.0,0.0,4.0,1.0,4.0,273.96423100003602,11.0,3.0,2.0
3001026911.0,0.0,5.0,0.0,5.0,0.0,11.0,3.0,0.0
3001026911.0,0.0,1.0,1.0,1.0,319.05216899985999,12.0,3.0,0.0
3001026911.0,0.0,2.0,1.0,2.0,343.54145099996498,12.0,3.0,0.0
3001026911.0,0.0,3.0,1.0,3.0,365.18723700009986,12.0,3.0,0.0
3001026911.0,0.0,4.0,1.0,4.0,391.73224199998901,12.0,3.0,0.0
3001026911.0,0.0,5.0,1.0,5.0,337.45060399996896,12.0,3.0,0.0
3001026911.0,0.0,6.0,1.0,6.0,333.75968400014193,12.0,3.0,0.0
3001026911.0,0.0,7.0,1.0,7.0,321.43849599992802,12.0,3.0,1.0
3001026911.0,1.0,8.0,1.0,0.0,0.0,12.0,3.0,0.0
3001026911.0,0.0,1.0,1.0,1.0,376.0737410000271,13.0,5.0,0.0
3001026911.0,0.0,2.0,1.0,2.0,325.985349999883,13.0,5.0,0.0
3001026911.0,0.0,3.0,1.0,3.0,363.72223600005799,13.0,5.0,0.0
3001026911.0,0.0,4.0,1.0,4.0,376.52817299999697,13.0,5.0,0.0
3001026911.0,0.0,5.0,1.0,5.0,398.99922299991891,13.0,5.0,0.0
3001026911.0,0.0,6.0,1.0,6.0,344.67568900004204,13.0,5.0,0.0
3001026911.0,0.0,7.0,1.0,7.0,375.28322100001799,13.0,5.0,1.0
3001026911.0,1.0,8.0,1.0,0.0,319.28989500011102,13.0,5.0,0.0
3001026911.0,0.0,1.0,1.0,1.0,408.14270300006712,14.0,5.0,0.0
3001026911.0,0.0,2.0,1.0,2.0,282.98962999997497,14.0,5.0,0.0
3001026911.0,0.0,3.0,1.0,3.0,352.06092999987999,14.0,5.0,0.0
3001026911.0,0.0,4.0,1.0,4.0,308.94251600011609,14.0,5.0,0.0
3001026911.0,0.0,5.0,1.0,5.0,369.7405150001029,14.0,5.0,2.0
3001026911.0,0.0,6.0,0.0,6.0,493.07912199992597,14.0,5.0,0.0
3001026911.0,0.0,1.0,1.0,1.0,307.89434100006491,15.0,3.0,0.0
3001026911.0,0.0,2.0,0.0,2.0,0.0,15.0,3.0,0.0
3001026911.0,0.0,1.0,1.0,1.0,312.024074999954,17.0,3.0,0.0
3001026911.0,0.0,2.0,1.0,2.0,329.42319500011797,17.0,3.0,2.0
3001026911.0,0.0,3.0,0.0,3.0,0.0,17.0,3.0,0.0
3001026911.0,0.0,1.0,1.0,1.0,328.25578099982499,18.0,3.0,0.0
3001026911.0,0.0,2.0,0.0,2.0,0.0,18.0,3.0,0.0
3001026911.0,0.0,1.0,1.0,1.0,1095.4065689998101,20.0,3.0,0.0
3001026911.0,0.0,2.0,1.0,2.0,303.29644400035198,20.0,3.0,1.0
3001026911.0,1.0,3.0,1.0,0.0,0.0,20.0,3.0,0.0
3001026911.0,0.0,1.0,1.0,1.0,585.72795999998596,22.0,5.0,0.0
3001026911.0,0.0,2.0,1.0,2.0,404.30649399968399,22.0,5.0,0.0
3001026911.0,0.0,3.0,1.0,3.0,421.33049500034792,22.0,5.0,0.0
3001026911.0,0.0,4.0,1.0,4.0,434.87725900013197,22.0,5.0,2.0
3001026911.0,0.0,5.0,0.0,5.0,355.71280300018805,22.0,5.0,0.0
3001026911.0,0.0,1.0,1.0,1.0,501.42859400011713,24.0,3.0,0.0
3001026911.0,0.0,2.0,1.0,2.0,373.94427800018099,24.0,3.0,0.0
3001026911.0,0.0,3.0,1.0,3.0,515.10687400013899,24.0,3.0,0.0
3001026911.0,0.0,4.0,1.0,4.0,440.89354600009801,24.0,3.0,0.0
3001026911.0,0.0,5.0,1.0,5.0,348.55314300011702,24.0,3.0,0.0
3001026911.0,0.0,6.0,1.0,6.0,325.67664399994106,24.0,3.0,2.0
3001026911.0,0.0,7.0,0.0,7.0,0.0,24.0,3.0,0.0
3001026911.0,0.0,1.0,1.0,1.0,488.79549799994498,25.0,3.0,0.0
3001026911.0,0.0,2.0,1.0,2.0,342.21256999990095,25.0,3.0,0.0
3001026911.0,0.0,3.0,1.0,3.0,344.62158900032603,25.0,3.0,0.0
3001026911.0,0.0,4.0,1.0,4.0,321.53988400023104,25.0,3.0,2.0
3001026911.0,0.0,5.0,0.0,5.0,0.0,25.0,3.0,0.0
3001026911.0,0.0,1.0,1.0,1.0,403.53213200023697,27.0,3.0,0.0
3001026911.0,0.0,2.0,1.0,2.0,406.61329600016001,27.0,3.0,0.0
3001026911.0,0.0,3.0,1.0,3.0,409.20738599970713,27.0,3.0,1.0
3001026911.0,1.0,4.0,1.0,0.0,0.0,27.0,3.0,0.0
3001027311.0,0.0,1.0,1.0,1.0,473.95776599995509,2.0,5.0,0.0
3001027311.0,0.0,2.0,0.0,2.0,681.49012699996103,2.0,5.0,0.0
3001027311.0,0.0,1.0,1.0,1.0,1253.54675,3.0,3.0,0.0
3001027311.0,1.0,2.0,1.0,0.0,0.0,3.0,3.0,0.0
3001027311.0,0.0,1.0,1.0,1.0,560.43771700001287,4.0,5.0,0.0
3001027311.0,1.0,2.0,1.0,0.0,463.37094799997698,4.0,5.0,0.0
3001027311.0,0.0,1.0,1.0,1.0,541.35360800000899,6.0,5.0,0.0
3001027311.0,1.0,2.0,1.0,0.0,929.51992600001222,6.0,5.0,0.0
3001027311.0,0.0,1.0,1.0,1.0,611.95604499999899,7.0,5.0,0.0
3001027311.0,1.0,2.0,1.0,0.0,440.17639799994902,7.0,5.0,0.0
3001027311.0,0.0,1.0,1.0,1.0,556.13394400001005,8.0,5.0,0.0
3001027311.0,0.0,2.0,1.0,2.0,470.99790599997999,8.0,5.0,0.0
3001027311.0,0.0,3.0,1.0,3.0,1384.0430070000598,8.0,5.0,1.0
3001027311.0,1.0,4.0,1.0,0.0,463.36339300000901,8.0,5.0,0.0
3001027311.0,0.0,1.0,1.0,1.0,453.86641100003487,11.0,5.0,0.0
3001027311.0,0.0,2.0,1.0,2.0,2167.1878060000199,11.0,5.0,0.0
3001027311.0,0.0,3.0,1.0,3.0,611.0795439999489,11.0,5.0,1.0
3001027311.0,1.0,4.0,1.0,0.0,1039.8710329999401,11.0,5.0,0.0
3001027311.0,0.0,1.0,1.0,1.0,740.81024899999204,13.0,5.0,0.0
3001027311.0,0.0,2.0,1.0,2.0,359.67816200002295,13.0,5.0,1.0
3001027311.0,1.0,3.0,1.0,0.0,717.37568699995802,13.0,5.0,0.0
3001027311.0,0.0,1.0,1.0,1.0,370.09973300007499,14.0,5.0,0.0
3001027311.0,0.0,2.0,1.0,2.0,428.965670000025,14.0,5.0,0.0
3001027311.0,0.0,3.0,1.0,3.0,679.21745899991481,14.0,5.0,1.0
3001027311.0,1.0,4.0,1.0,0.0,759.23613600002682,14.0,5.0,0.0
3001027311.0,0.0,1.0,1.0,1.0,519.04096400005483,15.0,5.0,0.0
3001027311.0,0.0,2.0,1.0,2.0,557.34280399997317,15.0,5.0,0.0
3001027311.0,0.0,3.0,1.0,3.0,683.83495600005517,15.0,5.0,2.0
3001027311.0,0.0,4.0,0.0,4.0,325.52369699999394,15.0,5.0,0.0
3001027311.0,0.0,1.0,1.0,1.0,354.73927700002196,16.0,3.0,0.0
3001027311.0,0.0,2.0,1.0,2.0,499.45531700007001,16.0,3.0,1.0
3001027311.0,1.0,3.0,1.0,0.0,0.0,16.0,3.0,0.0
3001027311.0,0.0,1.0,1.0,1.0,366.03854100008004,17.0,5.0,0.0
3001027311.0,0.0,2.0,1.0,2.0,462.01609999991399,17.0,5.0,1.0
3001027311.0,1.0,3.0,1.0,0.0,1126.35925200004,17.0,5.0,0.0
3001027311.0,0.0,1.0,1.0,1.0,549.37175800000705,18.0,5.0,0.0
3001027311.0,0.0,2.0,1.0,2.0,462.07827500006698,18.0,5.0,0.0
3001027311.0,0.0,3.0,1.0,3.0,344.98656899995694,18.0,5.0,1.0
3001027311.0,1.0,4.0,1.0,0.0,825.22202800009791,18.0,5.0,0.0
3001027311.0,0.0,1.0,1.0,1.0,883.29892800004507,20.0,5.0,0.0
3001027311.0,0.0,2.0,1.0,2.0,346.9585569999939,20.0,5.0,0.0
3001027311.0,0.0,3.0,1.0,3.0,401.81430799998498,20.0,5.0,2.0
3001027311.0,0.0,4.0,0.0,4.0,846.64369899996905,20.0,5.0,0.0
3001027311.0,0.0,1.0,1.0,1.0,556.37963999993201,21.0,3.0,0.0
3001027311.0,0.0,2.0,1.0,2.0,341.21040000002301,21.0,3.0,2.0
3001027311.0,0.0,3.0,0.0,3.0,0.0,21.0,3.0,0.0
3001027311.0,0.0,1.0,1.0,1.0,395.75580600001098,22.0,3.0,0.0
3001027311.0,0.0,2.0,1.0,2.0,471.74452700005509,22.0,3.0,0.0
3001027311.0,0.0,3.0,1.0,3.0,468.25317900004404,22.0,3.0,1.0
3001027311.0,1.0,4.0,1.0,0.0,0.0,22.0,3.0,0.0
3001027311.0,0.0,1.0,1.0,1.0,782.85782499995082,24.0,5.0,0.0
3001027311.0,0.0,2.0,1.0,2.0,561.4867340000269,24.0,5.0,1.0
3001027311.0,1.0,3.0,1.0,0.0,476.71012700004712,24.0,5.0,0.0
3001027311.0,0.0,1.0,1.0,1.0,705.72520400003191,25.0,5.0,0.0
3001027311.0,0.0,2.0,1.0,2.0,634.78585699999701,25.0,5.0,0.0
3001027311.0,0.0,3.0,1.0,3.0,940.82719699997608,25.0,5.0,2.0
3001027311.0,0.0,4.0,0.0,4.0,552.51001700003098,25.0,5.0,0.0
3001027311.0,0.0,1.0,1.0,1.0,780.37190899999621,26.0,3.0,0.0
3001027311.0,0.0,2.0,1.0,2.0,620.97753900002294,26.0,3.0,1.0
3001027311.0,1.0,3.0,1.0,0.0,0.0,26.0,3.0,0.0
3001027311.0,0.0,1.0,1.0,1.0,585.81427699993992,27.0,5.0,0.0
3001027311.0,0.0,2.0,1.0,2.0,500.94006999995599,27.0,5.0,1.0
3001027311.0,1.0,3.0,1.0,0.0,864.00922300003901,27.0,5.0,0.0
3001027311.0,0.0,1.0,1.0,1.0,584.86676300003603,28.0,5.0,0.0
3001027311.0,0.0,2.0,1.0,2.0,423.31234599998902,28.0,5.0,0.0
3001027311.0,0.0,3.0,1.0,3.0,839.56592800007002,28.0,5.0,1.0
3001027311.0,1.0,4.0,1.0,0.0,781.51834599998392,28.0,5.0,0.0
3001027311.0,0.0,1.0,1.0,1.0,559.09557799998288,29.0,5.0,0.0
3001027311.0,0.0,2.0,1.0,2.0,453.10229599999701,29.0,5.0,2.0
3001027311.0,0.0,3.0,0.0,3.0,337.95165900005503,29.0,5.0,0.0
3001027311.0,0.0,1.0,1.0,1.0,533.363748999932,30.0,3.0,0.0
3001027311.0,0.0,2.0,0.0,2.0,0.0,30.0,3.0,0.0
3001027311.0,0.0,1.0,1.0,1.0,589.33519200002092,31.0,3.0,0.0
3001027311.0,1.0,2.0,1.0,0.0,0.0,31.0,3.0,0.0
3001027311.0,0.0,1.0,1.0,1.0,530.651020999926,33.0,5.0,0.0
3001027311.0,0.0,2.0,1.0,2.0,584.3050500000121,33.0,5.0,1.0
3001027311.0,1.0,3.0,1.0,0.0,927.090053000029,33.0,5.0,0.0
3001027311.0,0.0,1.0,1.0,1.0,462.91201200006105,35.0,5.0,0.0
3001027311.0,0.0,2.0,1.0,2.0,471.27960300008505,35.0,5.0,0.0
3001027311.0,0.0,3.0,1.0,3.0,551.39004199997999,35.0,5.0,0.0
3001027311.0,0.0,4.0,1.0,4.0,692.48893999997608,35.0,5.0,0.0
3001028011.0,0.0,1.0,1.0,1.0,1205.8163269998704,1.0,0.0,0.0
3001028011.0,0.0,2.0,1.0,2.0,486.64883500009597,1.0,0.0,0.0
3001028011.0,0.0,3.0,1.0,3.0,882.42707800009202,1.0,0.0,1.0
3001028011.0,1.0,4.0,1.0,0.0,0.0,1.0,0.0,0.0
3001028011.0,0.0,1.0,1.0,1.0,514.305122999986,2.0,5.0,0.0
3001028011.0,0.0,2.0,1.0,2.0,642.28679999996496,2.0,5.0,0.0
3001028011.0,0.0,3.0,1.0,3.0,1344.5144529998704,2.0,5.0,1.0
3001028011.0,1.0,4.0,1.0,0.0,634.24178500008611,2.0,5.0,0.0
3001028011.0,0.0,1.0,1.0,1.0,378.28252300005295,4.0,5.0,0.0
3001028011.0,0.0,2.0,1.0,2.0,389.18061999993398,4.0,5.0,0.0
3001028011.0,0.0,3.0,1.0,3.0,909.22599800001103,4.0,5.0,0.0
3001028011.0,0.0,4.0,1.0,4.0,753.39389400005507,4.0,5.0,1.0
3001028011.0,1.0,5.0,1.0,0.0,1250.51576600004,4.0,5.0,0.0
3001028011.0,0.0,1.0,1.0,1.0,483.61919499984702,5.0,5.0,0.0
3001028011.0,0.0,2.0,1.0,2.0,523.62267399985296,5.0,5.0,0.0
3001028011.0,0.0,3.0,1.0,3.0,496.78272699998206,5.0,5.0,0.0
3001028011.0,0.0,4.0,1.0,4.0,829.39300599991793,5.0,5.0,0.0
3001028011.0,0.0,5.0,1.0,5.0,1033.7041899999799,5.0,5.0,1.0
3001028011.0,1.0,6.0,1.0,0.0,1000.84341600018,5.0,5.0,0.0
3001028011.0,0.0,1.0,1.0,1.0,349.01924800010397,7.0,5.0,0.0
3001028011.0,0.0,2.0,1.0,2.0,251.22597199992896,7.0,5.0,0.0
3001028011.0,0.0,3.0,1.0,3.0,279.71049400002801,7.0,5.0,0.0
3001028011.0,0.0,4.0,1.0,4.0,336.21822200007006,7.0,5.0,0.0
3001028011.0,0.0,5.0,1.0,5.0,733.77513899981795,7.0,5.0,0.0
3001028011.0,0.0,6.0,1.0,6.0,1093.0901120000301,7.0,5.0,0.0
3001028011.0,0.0,7.0,1.0,7.0,923.75751899999204,7.0,5.0,2.0
3001028011.0,0.0,8.0,0.0,8.0,770.8742110000909,7.0,5.0,0.0
3001028011.0,0.0,1.0,1.0,1.0,397.89921399983496,9.0,3.0,0.0
3001028011.0,0.0,2.0,1.0,2.0,579.57977199998788,9.0,3.0,0.0
3001028011.0,0.0,3.0,1.0,3.0,665.41376599980106,9.0,3.0,0.0
3001028011.0,0.0,4.0,1.0,4.0,610.03970600017999,9.0,3.0,0.0
3001028011.0,0.0,5.0,1.0,5.0,913.17553399994711,9.0,3.0,0.0
3001028011.0,0.0,6.0,1.0,6.0,1200.9325779999901,9.0,3.0,2.0
3001028011.0,0.0,7.0,0.0,7.0,0.0,9.0,3.0,0.0
3001028011.0,0.0,1.0,1.0,1.0,540.23222299997497,10.0,3.0,0.0
3001028011.0,0.0,2.0,1.0,2.0,442.9107270000261,10.0,3.0,0.0
3001028011.0,0.0,3.0,1.0,3.0,548.36854899986099,10.0,3.0,0.0
3001028011.0,0.0,4.0,1.0,4.0,678.30642500007298,10.0,3.0,1.0
3001028011.0,1.0,5.0,1.0,0.0,0.0,10.0,3.0,0.0
3001028011.0,0.0,1.0,1.0,1.0,565.56658499994205,11.0,5.0,0.0
3001028011.0,0.0,2.0,1.0,2.0,347.24006999999801,11.0,5.0,0.0
3001028011.0,0.0,3.0,1.0,3.0,466.9510619999071,11.0,5.0,1.0
3001028011.0,1.0,4.0,1.0,0.0,565.56652400013286,11.0,5.0,0.0
3001028011.0,0.0,1.0,1.0,1.0,633.18209499993793,13.0,5.0,0.0
3001028011.0,0.0,2.0,1.0,2.0,451.82434899993501,13.0,5.0,0.0
3001028011.0,0.0,3.0,1.0,3.0,674.27429400004303,13.0,5.0,0.0
3001028011.0,0.0,4.0,1.0,4.0,1121.3065140000301,13.0,5.0,1.0
3001028011.0,1.0,5.0,1.0,0.0,517.33232799983898,13.0,5.0,0.0
3001028011.0,0.0,1.0,1.0,1.0,706.86809700009701,14.0,5.0,0.0
3001028011.0,0.0,2.0,1.0,2.0,604.89073299981999,14.0,5.0,0.0
3001028011.0,0.0,3.0,1.0,3.0,1205.7534050000004,14.0,5.0,1.0
3001028011.0,1.0,4.0,1.0,0.0,1840.5906890000101,14.0,5.0,0.0
3001028011.0,0.0,1.0,1.0,1.0,435.94204200007897,15.0,5.0,0.0
3001028011.0,0.0,2.0,1.0,2.0,261.85194000004202,15.0,5.0,0.0
3001028011.0,0.0,3.0,1.0,3.0,269.05478000003302,15.0,5.0,0.0
3001028011.0,0.0,4.0,1.0,4.0,613.00272499988796,15.0,5.0,2.0
3001028011.0,0.0,5.0,0.0,5.0,1678.6034520000599,15.0,5.0,0.0
3001028011.0,0.0,1.0,1.0,1.0,536.31896100000608,16.0,3.0,0.0
3001028011.0,0.0,2.0,1.0,2.0,289.68989600002703,16.0,3.0,0.0
3001028011.0,0.0,3.0,1.0,3.0,616.50103599981799,16.0,3.0,0.0
3001028011.0,0.0,4.0,1.0,4.0,531.58846199994503,16.0,3.0,0.0
3001028011.0,0.0,5.0,1.0,5.0,992.1074369999593,16.0,3.0,1.0
3001028011.0,1.0,6.0,1.0,0.0,0.0,16.0,3.0,0.0
3001028011.0,0.0,1.0,1.0,1.0,405.69957799993995,17.0,5.0,0.0
3001028011.0,0.0,2.0,1.0,2.0,528.73749299988003,17.0,5.0,0.0
3001028011.0,0.0,3.0,1.0,3.0,1888.7496509998998,17.0,5.0,1.0
3001028011.0,1.0,4.0,1.0,0.0,517.6704660000272,17.0,5.0,0.0
3001028011.0,0.0,1.0,1.0,1.0,400.65920999995797,21.0,5.0,0.0
3001028011.0,0.0,2.0,1.0,2.0,649.28089399995793,21.0,5.0,0.0
3001028011.0,0.0,3.0,1.0,3.0,785.13816400004521,21.0,5.0,0.0
3001028011.0,0.0,4.0,1.0,4.0,959.65024799988919,21.0,5.0,1.0
3001028011.0,1.0,5.0,1.0,0.0,355.99524799999887,21.0,5.0,0.0
3001028011.0,0.0,1.0,1.0,1.0,443.60265599993897,22.0,5.0,0.0
3001028011.0,0.0,2.0,1.0,2.0,580.55998500003602,22.0,5.0,0.0
3001028011.0,0.0,3.0,1.0,3.0,673.69708999990507,22.0,5.0,2.0
3001028011.0,0.0,4.0,0.0,4.0,432.70814199990997,22.0,5.0,0.0
3001028011.0,0.0,1.0,1.0,1.0,493.92280400002204,23.0,3.0,0.0
3001028011.0,1.0,2.0,1.0,0.0,0.0,23.0,3.0,0.0
3001028011.0,0.0,1.0,1.0,1.0,725.17214400022601,26.0,5.0,0.0
3001028011.0,0.0,2.0,1.0,2.0,344.193771000391,26.0,5.0,0.0
3001028011.0,0.0,3.0,1.0,3.0,263.53900100002602,26.0,5.0,0.0
3001028011.0,0.0,4.0,1.0,4.0,755.53292399990801,26.0,5.0,0.0
3001028011.0,0.0,5.0,1.0,5.0,224.59105799998699,26.0,5.0,0.0
3001030411.0,0.0,1.0,1.0,1.0,1085.0072920002301,1.0,0.0,1.0
3001030411.0,1.0,2.0,1.0,0.0,0.0,1.0,0.0,0.0
3001030411.0,0.0,1.0,1.0,1.0,882.32512400008989,2.0,5.0,0.0
3001030411.0,0.0,2.0,1.0,2.0,763.98307999988901,2.0,5.0,0.0
3001030411.0,0.0,3.0,1.0,3.0,1373.3555129997501,2.0,5.0,1.0
3001030411.0,1.0,4.0,1.0,0.0,808.48958299975493,2.0,5.0,0.0
3001030411.0,0.0,1.0,1.0,1.0,408.79714699985891,3.0,5.0,0.0
3001030411.0,0.0,2.0,1.0,2.0,309.29568900001004,3.0,5.0,0.0
3001030411.0,0.0,3.0,1.0,3.0,311.57727899972099,3.0,5.0,0.0
3001030411.0,0.0,4.0,1.0,4.0,592.41669899984117,3.0,5.0,1.0
3001030411.0,1.0,5.0,1.0,0.0,620.26951200004999,3.0,5.0,0.0
3001030411.0,0.0,1.0,1.0,1.0,338.93389900003996,4.0,5.0,0.0
3001030411.0,0.0,2.0,1.0,2.0,304.15378399993597,4.0,5.0,0.0
3001030411.0,0.0,3.0,1.0,3.0,340.598173000217,4.0,5.0,0.0
3001030411.0,0.0,4.0,1.0,4.0,546.88566899994794,4.0,5.0,0.0
3001030411.0,0.0,5.0,1.0,5.0,526.10028999970393,4.0,5.0,1.0
3001030411.0,1.0,6.0,1.0,0.0,731.6197870000002,4.0,5.0,0.0
3001030411.0,0.0,1.0,1.0,1.0,518.76235600002508,5.0,5.0,0.0
3001030411.0,0.0,2.0,1.0,2.0,300.80141500002401,5.0,5.0,1.0
3001030411.0,1.0,3.0,1.0,0.0,321.0552710002051,5.0,5.0,0.0
3001030411.0,0.0,1.0,1.0,1.0,411.89117399972002,6.0,5.0,0.0
3001030411.0,0.0,2.0,1.0,2.0,272.37130799994702,6.0,5.0,0.0
3001030411.0,0.0,3.0,1.0,3.0,291.22581699993998,6.0,5.0,1.0
3001030411.0,1.0,4.0,1.0,0.0,374.52623999979596,6.0,5.0,0.0
3001030411.0,0.0,1.0,1.0,1.0,629.98117000006482,9.0,5.0,0.0
3001030411.0,0.0,2.0,1.0,2.0,555.64386700007208,9.0,5.0,0.0
3001030411.0,0.0,3.0,1.0,3.0,354.6752789998211,9.0,5.0,1.0
3001030411.0,1.0,4.0,1.0,0.0,304.02558900004806,9.0,5.0,0.0
3001030411.0,0.0,1.0,1.0,1.0,392.77124199998093,10.0,5.0,0.0
3001030411.0,0.0,2.0,1.0,2.0,341.56753700017401,10.0,5.0,0.0
3001030411.0,0.0,3.0,1.0,3.0,322.24224800029305,10.0,5.0,0.0
3001030411.0,0.0,4.0,1.0,4.0,810.68738600015399,10.0,5.0,0.0
3001030411.0,0.0,5.0,1.0,5.0,1427.4017190000402,10.0,5.0,2.0
3001030411.0,0.0,6.0,0.0,6.0,589.12236800006201,10.0,5.0,0.0
3001030411.0,0.0,1.0,1.0,1.0,516.91172200025892,12.0,3.0,0.0
3001030411.0,0.0,2.0,1.0,2.0,291.49716500023703,12.0,3.0,1.0
3001030411.0,1.0,3.0,1.0,0.0,0.0,12.0,3.0,0.0
3001030411.0,0.0,1.0,1.0,1.0,469.27238200032713,16.0,5.0,0.0
3001030411.0,1.0,2.0,1.0,0.0,386.45768300011702,16.0,5.0,0.0
3001030411.0,0.0,1.0,1.0,1.0,308.99222799962399,17.0,5.0,0.0
3001030411.0,0.0,2.0,1.0,2.0,266.83273900016496,17.0,5.0,0.0
3001030411.0,0.0,3.0,1.0,3.0,262.06602799993601,17.0,5.0,0.0
3001030411.0,0.0,4.0,1.0,4.0,324.56639300016809,17.0,5.0,1.0
3001030411.0,1.0,5.0,1.0,0.0,415.14345199993795,17.0,5.0,0.0
3001030411.0,0.0,1.0,1.0,1.0,311.729242999718,18.0,5.0,0.0
3001030411.0,0.0,2.0,1.0,2.0,401.00343500034796,18.0,5.0,0.0
3001030411.0,0.0,3.0,1.0,3.0,368.21525100003794,18.0,5.0,1.0
3001030411.0,1.0,4.0,1.0,0.0,281.04509500008101,18.0,5.0,0.0
3001030411.0,0.0,1.0,1.0,1.0,340.51176799994204,19.0,5.0,0.0
3001030411.0,0.0,2.0,1.0,2.0,229.47860200019889,19.0,5.0,0.0
3001030411.0,0.0,3.0,1.0,3.0,822.10798899996007,19.0,5.0,2.0
3001030411.0,0.0,4.0,0.0,4.0,330.56588199997299,19.0,5.0,0.0
3001030411.0,0.0,1.0,1.0,1.0,416.50723299971997,20.0,3.0,0.0
3001030411.0,0.0,2.0,1.0,2.0,188.14026999962201,20.0,3.0,0.0
3001030411.0,0.0,3.0,1.0,3.0,211.93348599990699,20.0,3.0,0.0
3001030411.0,0.0,4.0,1.0,4.0,290.199411999765,20.0,3.0,1.0
3001030411.0,1.0,5.0,1.0,0.0,0.0,20.0,3.0,0.0
3001030411.0,0.0,1.0,1.0,1.0,386.498946000302,22.0,5.0,0.0
3001030411.0,0.0,2.0,1.0,2.0,268.36226599971303,22.0,5.0,0.0
3001030411.0,0.0,3.0,1.0,3.0,371.66811099996301,22.0,5.0,2.0
3001030411.0,0.0,4.0,0.0,4.0,294.393728000159,22.0,5.0,0.0
3001030411.0,0.0,1.0,1.0,1.0,333.52570899978696,23.0,3.0,0.0
3001030411.0,1.0,2.0,1.0,0.0,0.0,23.0,3.0,0.0
3001030411.0,0.0,1.0,1.0,1.0,351.90307799984998,24.0,5.0,0.0
3001030411.0,1.0,2.0,1.0,0.0,230.32611299959203,24.0,5.0,0.0
3001030411.0,0.0,1.0,1.0,1.0,529.29797399974609,26.0,5.0,0.0
3001030411.0,0.0,2.0,1.0,2.0,976.94040399983396,26.0,5.0,0.0
3001030411.0,0.0,3.0,1.0,3.0,845.33332299997699,26.0,5.0,2.0
3001030411.0,0.0,4.0,0.0,4.0,301.04172399933299,26.0,5.0,0.0
3001030411.0,0.0,1.0,1.0,1.0,581.33875400017109,27.0,3.0,0.0
3001030411.0,1.0,2.0,1.0,0.0,0.0,27.0,3.0,0.0
3001030411.0,0.0,1.0,1.0,1.0,448.62388599995001,28.0,5.0,0.0
3001030411.0,0.0,2.0,1.0,2.0,391.2979799997629,28.0,5.0,1.0
3001030411.0,1.0,3.0,1.0,0.0,389.03203900008498,28.0,5.0,0.0
3001030411.0,0.0,1.0,1.0,1.0,377.848359999916,29.0,5.0,0.0
3001030411.0,0.0,2.0,1.0,2.0,456.34618899930496,29.0,5.0,0.0
3001030411.0,0.0,3.0,1.0,3.0,615.30073099947901,29.0,5.0,0.0
3001030411.0,0.0,4.0,1.0,4.0,840.50719500009995,29.0,5.0,0.0
3001030411.0,0.0,5.0,1.0,5.0,541.82169199975795,29.0,5.0,2.0
3001030411.0,0.0,6.0,0.0,6.0,352.24490699965799,29.0,5.0,0.0
3001031611.0,0.0,1.0,1.0,1.0,789.38037499995107,2.0,3.0,0.0
3001031611.0,1.0,2.0,1.0,0.0,0.0,2.0,3.0,0.0
3001031611.0,0.0,1.0,1.0,1.0,551.97363299998904,3.0,5.0,0.0
3001031611.0,0.0,2.0,1.0,2.0,778.52252699994995,3.0,5.0,0.0
3001031611.0,0.0,3.0,1.0,3.0,959.74632399998006,3.0,5.0,0.0
3001031611.0,0.0,4.0,1.0,4.0,849.07053500000995,3.0,5.0,2.0
3001031611.0,0.0,5.0,0.0,5.0,1456.6087699999998,3.0,5.0,0.0
3001031611.0,0.0,1.0,1.0,1.0,554.57099900002004,4.0,3.0,0.0
3001031611.0,0.0,2.0,1.0,2.0,976.31757300007405,4.0,3.0,1.0
3001031611.0,1.0,3.0,1.0,0.0,0.0,4.0,3.0,0.0
3001031611.0,0.0,1.0,1.0,1.0,469.33057300009295,6.0,5.0,0.0
3001031611.0,0.0,2.0,1.0,2.0,806.72796500005006,6.0,5.0,0.0
3001031611.0,0.0,3.0,1.0,3.0,3095.9588210000702,6.0,5.0,1.0
3001031611.0,1.0,4.0,1.0,0.0,2043.5851889999399,6.0,5.0,0.0
3001031611.0,0.0,1.0,1.0,1.0,2174.7363209999498,7.0,5.0,0.0
3001031611.0,0.0,2.0,1.0,2.0,639.70703500001503,7.0,5.0,1.0
3001031611.0,1.0,3.0,1.0,0.0,2322.5390010000001,7.0,5.0,0.0
3001031611.0,0.0,1.0,1.0,1.0,319.02741400006101,8.0,5.0,0.0
3001031611.0,0.0,2.0,1.0,2.0,333.83793299992698,8.0,5.0,0.0
3001031611.0,0.0,3.0,1.0,3.0,615.03425600005801,8.0,5.0,0.0
3001031611.0,0.0,4.0,1.0,4.0,922.04431100003569,8.0,5.0,0.0
3001031611.0,0.0,5.0,1.0,5.0,637.08576200008304,8.0,5.0,0.0
3001031611.0,0.0,6.0,1.0,6.0,665.63254400000483,8.0,5.0,0.0
3001031611.0,0.0,7.0,1.0,7.0,874.242858000002,8.0,5.0,0.0
3001031611.0,0.0,8.0,1.0,8.0,3479.5484880000899,8.0,5.0,2.0
3001031611.0,0.0,9.0,0.0,9.0,936.07395699996198,8.0,5.0,0.0
3001031611.0,0.0,1.0,1.0,1.0,517.19420400002002,9.0,3.0,0.0
3001031611.0,1.0,2.0,1.0,0.0,0.0,9.0,3.0,0.0
3001031611.0,0.0,1.0,1.0,1.0,422.06361599994614,11.0,5.0,0.0
3001031611.0,0.0,2.0,1.0,2.0,722.00981300000001,11.0,5.0,0.0
3001031611.0,0.0,3.0,1.0,3.0,3263.3844179999896,11.0,5.0,0.0
3001031611.0,0.0,4.0,1.0,4.0,2107.80814100008,11.0,5.0,1.0
3001031611.0,1.0,5.0,1.0,0.0,1577.91853099991,11.0,5.0,0.0
3001031611.0,1.0,1.0,1.0,0.0,1592.5797930000301,12.0,5.0,0.0
3001031611.0,0.0,1.0,1.0,1.0,478.60796800000611,13.0,5.0,0.0
3001031611.0,0.0,2.0,1.0,2.0,1631.4191470000906,13.0,5.0,0.0
3001031611.0,0.0,3.0,1.0,3.0,330.07196800008398,13.0,5.0,0.0
3001031611.0,0.0,4.0,1.0,4.0,406.015074000038,13.0,5.0,0.0
3001031611.0,0.0,5.0,1.0,5.0,473.30738200002997,13.0,5.0,0.0
3001031611.0,0.0,6.0,1.0,6.0,293.61633900009605,13.0,5.0,0.0
3001031611.0,0.0,7.0,1.0,7.0,661.58997100001193,13.0,5.0,0.0
3001031611.0,0.0,8.0,1.0,8.0,726.11698500009004,13.0,5.0,0.0
3001031611.0,0.0,9.0,1.0,9.0,555.52111099996205,13.0,5.0,1.0
3001031611.0,1.0,10.0,1.0,0.0,2403.1506320000099,13.0,5.0,0.0
3001031611.0,0.0,1.0,1.0,1.0,1490.0479580001002,14.0,5.0,0.0
3001031611.0,0.0,2.0,1.0,2.0,658.56062199998212,14.0,5.0,0.0
3001031611.0,0.0,3.0,1.0,3.0,1649.7164249999496,14.0,5.0,0.0
3001031611.0,0.0,4.0,1.0,4.0,821.15536499998097,14.0,5.0,1.0
3001031611.0,1.0,5.0,1.0,0.0,711.6800310000142,14.0,5.0,0.0
3001031611.0,0.0,1.0,1.0,1.0,468.80286000009596,16.0,5.0,0.0
3001031611.0,0.0,2.0,1.0,2.0,318.80299199997398,16.0,5.0,0.0
3001031611.0,0.0,3.0,1.0,3.0,429.04652799995796,16.0,5.0,2.0
3001031611.0,0.0,4.0,0.0,4.0,479.44911700005798,16.0,5.0,0.0
3001031611.0,0.0,1.0,1.0,1.0,815.03757100006214,17.0,3.0,0.0
3001031611.0,0.0,2.0,1.0,2.0,258.6306450000389,17.0,3.0,0.0
3001031611.0,0.0,3.0,1.0,3.0,357.10157500000196,17.0,3.0,1.0
3001031611.0,1.0,4.0,1.0,0.0,0.0,17.0,3.0,0.0
3001031611.0,0.0,1.0,1.0,1.0,622.61045200011711,18.0,5.0,0.0
3001031611.0,0.0,2.0,1.0,2.0,741.01138700007095,18.0,5.0,0.0
3001031611.0,0.0,3.0,1.0,3.0,818.67524400013303,18.0,5.0,2.0
3001031611.0,0.0,4.0,0.0,4.0,1291.0633540000199,18.0,5.0,0.0
3001031611.0,0.0,1.0,1.0,1.0,642.73165200006599,19.0,3.0,0.0
3001031611.0,0.0,2.0,1.0,2.0,686.44938500005992,19.0,3.0,0.0
3001031611.0,0.0,3.0,1.0,3.0,1493.3577260001102,19.0,3.0,0.0
3001031611.0,0.0,4.0,1.0,4.0,3271.8951720000896,19.0,3.0,0.0
3001031611.0,0.0,5.0,1.0,5.0,878.55796500002691,19.0,3.0,0.0
3001031611.0,0.0,6.0,1.0,6.0,361.40514799990297,19.0,3.0,1.0
3001031611.0,1.0,7.0,1.0,0.0,0.0,19.0,3.0,0.0
3001031611.0,0.0,1.0,1.0,1.0,777.79867799995407,21.0,5.0,0.0
3001031611.0,0.0,2.0,1.0,2.0,523.35527099989997,21.0,5.0,0.0
3001031611.0,0.0,3.0,1.0,3.0,710.60597900009293,21.0,5.0,1.0
3001031611.0,1.0,4.0,1.0,0.0,385.37030099996605,21.0,5.0,0.0
3001031611.0,0.0,1.0,1.0,1.0,620.85466700000291,22.0,5.0,0.0
3001031611.0,0.0,2.0,1.0,2.0,520.4544660000472,22.0,5.0,0.0
3001031611.0,0.0,3.0,1.0,3.0,777.28222700011418,22.0,5.0,0.0
3001031611.0,0.0,4.0,1.0,4.0,2177.1656620001104,22.0,5.0,2.0
3001031611.0,0.0,5.0,0.0,5.0,334.41848200004603,22.0,5.0,0.0
3001031611.0,0.0,1.0,1.0,1.0,664.98544700016294,23.0,3.0,0.0
3001031611.0,1.0,2.0,1.0,0.0,0.0,23.0,3.0,0.0
3001031611.0,0.0,1.0,1.0,1.0,798.45476499985989,25.0,5.0,0.0
3001031611.0,0.0,2.0,1.0,2.0,1365.1546399999002,25.0,5.0,0.0
3001031611.0,0.0,3.0,1.0,3.0,1031.8442119999002,25.0,5.0,0.0
3001031611.0,0.0,4.0,1.0,4.0,905.84911999985718,25.0,5.0,0.0
3001031611.0,0.0,5.0,1.0,5.0,1272.4657420001199,25.0,5.0,0.0
3001031611.0,0.0,6.0,1.0,6.0,438.97718299990601,25.0,5.0,0.0
3001032511.0,0.0,1.0,1.0,1.0,708.41849399994294,1.0,0.0,0.0
3001032511.0,0.0,2.0,1.0,2.0,496.82537800003996,1.0,0.0,1.0
3001032511.0,1.0,3.0,1.0,0.0,0.0,1.0,0.0,0.0
3001032511.0,0.0,1.0,1.0,1.0,455.95556099999601,2.0,5.0,0.0
3001032511.0,0.0,2.0,1.0,2.0,451.68597800000003,2.0,5.0,1.0
3001032511.0,1.0,3.0,1.0,0.0,447.99541099996497,2.0,5.0,0.0
3001032511.0,0.0,1.0,1.0,1.0,584.31484699997304,3.0,5.0,0.0
3001032511.0,0.0,2.0,1.0,2.0,589.01306400002795,3.0,5.0,0.0
3001032511.0,0.0,3.0,1.0,3.0,1011.61648699997,3.0,5.0,1.0
3001032511.0,1.0,4.0,1.0,0.0,331.97810299998304,3.0,5.0,0.0
3001032511.0,0.0,1.0,1.0,1.0,564.88454399993793,5.0,5.0,0.0
3001032511.0,0.0,2.0,1.0,2.0,384.86025199995294,5.0,5.0,0.0
3001032511.0,0.0,3.0,1.0,3.0,369.13747900007399,5.0,5.0,1.0
3001032511.0,1.0,4.0,1.0,0.0,423.788714000011,5.0,5.0,0.0
3001032511.0,0.0,1.0,1.0,1.0,374.17016400002001,7.0,5.0,0.0
3001032511.0,0.0,2.0,1.0,2.0,313.38404100006295,7.0,5.0,0.0
3001032511.0,0.0,3.0,1.0,3.0,442.33631700001291,7.0,5.0,0.0
3001032511.0,0.0,4.0,1.0,4.0,1029.3238959999401,7.0,5.0,1.0
3001032511.0,1.0,5.0,1.0,0.0,515.81937100002108,7.0,5.0,0.0
3001032511.0,0.0,1.0,1.0,1.0,413.075980000031,8.0,5.0,0.0
3001032511.0,0.0,2.0,1.0,2.0,313.23475699991803,8.0,5.0,0.0
3001032511.0,0.0,3.0,1.0,3.0,673.4166029999642,8.0,5.0,1.0
3001032511.0,1.0,4.0,1.0,0.0,566.56945800000392,8.0,5.0,0.0
3001032511.0,0.0,1.0,1.0,1.0,425.38461000003701,10.0,5.0,0.0
3001032511.0,0.0,2.0,1.0,2.0,348.60387699996011,10.0,5.0,0.0
3001032511.0,0.0,3.0,1.0,3.0,374.88415500001798,10.0,5.0,2.0
3001032511.0,0.0,4.0,0.0,4.0,519.53332799996599,10.0,5.0,0.0
3001032511.0,0.0,1.0,1.0,1.0,445.06460000002295,11.0,3.0,0.0
3001032511.0,1.0,2.0,1.0,0.0,0.0,11.0,3.0,0.0
3001032511.0,0.0,1.0,1.0,1.0,410.46196599995699,13.0,5.0,0.0
3001032511.0,0.0,2.0,1.0,2.0,360.96616200006798,13.0,5.0,0.0
3001032511.0,0.0,3.0,1.0,3.0,334.91627000000801,13.0,5.0,1.0
3001032511.0,1.0,4.0,1.0,0.0,401.12139999996492,13.0,5.0,0.0
3001032511.0,0.0,1.0,1.0,1.0,393.77106399990714,14.0,5.0,0.0
3001032511.0,0.0,2.0,1.0,2.0,511.19111699995284,14.0,5.0,0.0
3001032511.0,0.0,3.0,1.0,3.0,596.5138149999799,14.0,5.0,0.0
3001032511.0,0.0,4.0,1.0,4.0,407.33881000005601,14.0,5.0,1.0
3001032511.0,1.0,5.0,1.0,0.0,619.74816600002202,14.0,5.0,0.0
3001032511.0,0.0,1.0,1.0,1.0,372.76702400004098,15.0,5.0,0.0
3001032511.0,0.0,2.0,1.0,2.0,299.78282600006895,15.0,5.0,0.0
3001032511.0,0.0,3.0,1.0,3.0,428.80092400002894,15.0,5.0,0.0
3001032511.0,0.0,4.0,1.0,4.0,740.10751899993511,15.0,5.0,1.0
3001032511.0,1.0,5.0,1.0,0.0,453.9942480000721,15.0,5.0,0.0
3001032511.0,0.0,1.0,1.0,1.0,447.58032899994799,17.0,5.0,0.0
3001032511.0,0.0,2.0,1.0,2.0,343.71354300003503,17.0,5.0,0.0
3001032511.0,0.0,3.0,1.0,3.0,300.83283100009305,17.0,5.0,0.0
3001032511.0,0.0,4.0,1.0,4.0,314.73804000006606,17.0,5.0,1.0
3001032511.0,1.0,5.0,1.0,0.0,348.775205000038,17.0,5.0,0.0
3001032511.0,0.0,1.0,1.0,1.0,571.73716699992383,18.0,5.0,0.0
3001032511.0,0.0,2.0,1.0,2.0,374.96655699999292,18.0,5.0,0.0
3001032511.0,0.0,3.0,1.0,3.0,398.45978899995794,18.0,5.0,0.0
3001032511.0,0.0,4.0,1.0,4.0,384.78948800002405,18.0,5.0,2.0
3001032511.0,0.0,5.0,0.0,5.0,370.43517399990799,18.0,5.0,0.0
3001032511.0,0.0,1.0,1.0,1.0,364.98283299999895,20.0,3.0,0.0
3001032511.0,0.0,2.0,0.0,2.0,0.0,20.0,3.0,0.0
3001032511.0,0.0,1.0,1.0,1.0,547.6678600000472,21.0,3.0,0.0
3001032511.0,0.0,2.0,1.0,2.0,283.43060800000296,21.0,3.0,1.0
3001032511.0,1.0,3.0,1.0,0.0,0.0,21.0,3.0,0.0
3001032511.0,0.0,1.0,1.0,1.0,636.77882000001796,23.0,5.0,0.0
3001032511.0,0.0,2.0,1.0,2.0,679.53215300008208,23.0,5.0,0.0
3001032511.0,0.0,3.0,1.0,3.0,480.21506099996697,23.0,5.0,0.0
3001032511.0,0.0,4.0,1.0,4.0,736.35389399999008,23.0,5.0,2.0
3001032511.0,0.0,5.0,0.0,5.0,470.53197599996099,23.0,5.0,0.0
3001032511.0,0.0,1.0,1.0,1.0,732.7021199999989,24.0,3.0,0.0
3001032511.0,0.0,2.0,1.0,2.0,474.40686099992007,24.0,3.0,0.0
3001032511.0,0.0,3.0,1.0,3.0,572.61352299997304,24.0,3.0,0.0
3001032511.0,0.0,4.0,1.0,4.0,349.00990699998101,24.0,3.0,0.0
3001032511.0,0.0,5.0,1.0,5.0,892.06096399993794,24.0,3.0,1.0
3001032511.0,1.0,6.0,1.0,0.0,0.0,24.0,3.0,0.0
3001032511.0,0.0,1.0,1.0,1.0,586.13704999993399,25.0,5.0,0.0
3001032511.0,0.0,2.0,1.0,2.0,584.18154199989704,25.0,5.0,0.0
3001032511.0,0.0,3.0,1.0,3.0,480.02009399999702,25.0,5.0,0.0
3001032511.0,0.0,4.0,1.0,4.0,430.73770000000894,25.0,5.0,1.0
3001032511.0,1.0,5.0,1.0,0.0,459.25413499992402,25.0,5.0,0.0
3001032511.0,0.0,1.0,1.0,1.0,543.601881000086,26.0,5.0,0.0
3001032511.0,0.0,2.0,1.0,2.0,348.050516000058,26.0,5.0,0.0
3001032511.0,0.0,3.0,1.0,3.0,495.50248000002716,26.0,5.0,0.0
3001032511.0,0.0,4.0,1.0,4.0,417.25225499999397,26.0,5.0,1.0
3001032511.0,1.0,5.0,1.0,0.0,680.32947200003889,26.0,5.0,0.0
3001032511.0,0.0,1.0,1.0,1.0,605.93679399994483,27.0,5.0,0.0
3001032511.0,0.0,2.0,1.0,2.0,346.76173500008599,27.0,5.0,0.0
3001032511.0,0.0,3.0,1.0,3.0,317.75866199996,27.0,5.0,0.0
3001032511.0,0.0,4.0,1.0,4.0,585.36293999998202,27.0,5.0,1.0
3001032511.0,1.0,5.0,1.0,0.0,354.43638700007796,27.0,5.0,0.0
3001032511.0,0.0,1.0,1.0,1.0,449.35550800005285,28.0,5.0,0.0
3001032511.0,0.0,2.0,1.0,2.0,313.23950700004809,28.0,5.0,0.0
3001032511.0,0.0,3.0,1.0,3.0,295.54562199996298,28.0,5.0,0.0
3001032511.0,0.0,4.0,1.0,4.0,294.34417799996004,28.0,5.0,1.0
3001032511.0,1.0,5.0,1.0,0.0,297.07304499993398,28.0,5.0,0.0
3001032511.0,0.0,1.0,1.0,1.0,363.78577200002798,29.0,5.0,0.0
3001032511.0,0.0,2.0,1.0,2.0,323.677342999872,29.0,5.0,0.0
3001032511.0,0.0,3.0,1.0,3.0,341.45679600010209,29.0,5.0,0.0
3001032511.0,0.0,4.0,1.0,4.0,308.20814499998102,29.0,5.0,1.0
3001032511.0,1.0,5.0,1.0,0.0,335.47131199998103,29.0,5.0,0.0
3001032511.0,0.0,1.0,1.0,1.0,452.34942899992285,30.0,5.0,0.0
3001032511.0,0.0,2.0,1.0,2.0,285.80277900005109,30.0,5.0,0.0
3001032511.0,0.0,3.0,1.0,3.0,278.50884400004401,30.0,5.0,0.0
3001032511.0,0.0,4.0,1.0,4.0,364.51514300006204,30.0,5.0,0.0
3001032511.0,0.0,5.0,1.0,5.0,267.44650000000496,30.0,5.0,0.0
3001032911.0,0.0,1.0,1.0,1.0,1169.86596300012,1.0,0.0,0.0
3001032911.0,0.0,2.0,1.0,2.0,342.180849999977,1.0,0.0,0.0
3001032911.0,0.0,3.0,1.0,3.0,278.96708900016199,1.0,0.0,0.0
3001032911.0,0.0,4.0,1.0,4.0,277.63587599997697,1.0,0.0,2.0
3001032911.0,0.0,5.0,0.0,5.0,0.0,1.0,0.0,0.0
3001032911.0,0.0,1.0,1.0,1.0,347.37397899993994,3.0,3.0,0.0
3001032911.0,0.0,2.0,1.0,2.0,306.17780400007206,3.0,3.0,0.0
3001032911.0,0.0,3.0,1.0,3.0,312.76584500005794,3.0,3.0,0.0
3001032911.0,0.0,4.0,1.0,4.0,343.193063999934,3.0,3.0,1.0
3001032911.0,1.0,5.0,1.0,0.0,0.0,3.0,3.0,0.0
3001032911.0,0.0,1.0,1.0,1.0,515.9883449998689,4.0,5.0,0.0
3001032911.0,0.0,2.0,1.0,2.0,274.15395499997396,4.0,5.0,0.0
3001032911.0,0.0,3.0,1.0,3.0,583.18075199986208,4.0,5.0,0.0
3001032911.0,0.0,4.0,1.0,4.0,349.84138899994798,4.0,5.0,2.0
3001032911.0,0.0,5.0,0.0,5.0,743.12441300003206,4.0,5.0,0.0
3001032911.0,0.0,1.0,1.0,1.0,329.65754799988599,5.0,3.0,0.0
3001032911.0,0.0,2.0,1.0,2.0,260.858244000019,5.0,3.0,0.0
3001032911.0,0.0,3.0,1.0,3.0,283.74487900009603,5.0,3.0,0.0
3001032911.0,0.0,4.0,1.0,4.0,434.54499399990715,5.0,3.0,0.0
3001032911.0,0.0,5.0,1.0,5.0,661.10949499989101,5.0,3.0,1.0
3001032911.0,1.0,6.0,1.0,0.0,0.0,5.0,3.0,0.0
3001032911.0,0.0,1.0,1.0,1.0,411.07280599999297,6.0,5.0,0.0
3001032911.0,0.0,2.0,1.0,2.0,290.93185800002203,6.0,5.0,0.0
3001032911.0,0.0,3.0,1.0,3.0,306.088210000098,6.0,5.0,2.0
3001032911.0,0.0,4.0,0.0,4.0,317.46701399993105,6.0,5.0,0.0
3001032911.0,0.0,1.0,1.0,1.0,630.13794899984498,8.0,3.0,0.0
3001032911.0,1.0,2.0,1.0,0.0,0.0,8.0,3.0,0.0
3001032911.0,0.0,1.0,1.0,1.0,591.57022199997311,10.0,5.0,0.0
3001032911.0,0.0,2.0,1.0,2.0,624.90804100002606,10.0,5.0,0.0
3001032911.0,0.0,3.0,1.0,3.0,474.58137500007109,10.0,5.0,1.0
3001032911.0,1.0,4.0,1.0,0.0,336.9315220002141,10.0,5.0,0.0
3001032911.0,0.0,1.0,1.0,1.0,386.42045599999614,11.0,5.0,0.0
3001032911.0,0.0,2.0,1.0,2.0,319.99984600020099,11.0,5.0,0.0
3001032911.0,0.0,3.0,1.0,3.0,614.04814800016504,11.0,5.0,2.0
3001032911.0,0.0,4.0,0.0,4.0,634.50089100001583,11.0,5.0,0.0
3001032911.0,0.0,1.0,1.0,1.0,752.38944600005198,13.0,3.0,0.0
3001032911.0,0.0,2.0,1.0,2.0,576.8449220001911,13.0,3.0,0.0
3001032911.0,0.0,3.0,1.0,3.0,302.006139000014,13.0,3.0,2.0
3001032911.0,0.0,4.0,0.0,4.0,0.0,13.0,3.0,0.0
3001032911.0,0.0,1.0,1.0,1.0,633.01571900001409,15.0,3.0,0.0
3001032911.0,0.0,2.0,1.0,2.0,577.61187699998095,15.0,3.0,1.0
3001032911.0,1.0,3.0,1.0,0.0,0.0,15.0,3.0,0.0
3001032911.0,0.0,1.0,1.0,1.0,578.37462999987099,16.0,5.0,0.0
3001032911.0,0.0,2.0,1.0,2.0,320.58438700005399,16.0,5.0,2.0
3001032911.0,0.0,3.0,0.0,3.0,1360.66323499995,16.0,5.0,0.0
3001032911.0,0.0,1.0,1.0,1.0,843.42393499991908,19.0,3.0,0.0
3001032911.0,0.0,2.0,1.0,2.0,370.83691200018615,19.0,3.0,0.0
3001032911.0,0.0,3.0,1.0,3.0,447.55275000011397,19.0,3.0,1.0
3001032911.0,1.0,4.0,1.0,0.0,0.0,19.0,3.0,0.0
3001032911.0,0.0,1.0,1.0,1.0,325.75399000006701,20.0,5.0,0.0
3001032911.0,0.0,2.0,1.0,2.0,384.88169900006102,20.0,5.0,0.0
3001032911.0,0.0,3.0,1.0,3.0,495.83188499991599,20.0,5.0,1.0
3001032911.0,1.0,4.0,1.0,0.0,454.30767299990305,20.0,5.0,0.0
3001032911.0,0.0,1.0,1.0,1.0,607.41287600012606,21.0,5.0,0.0
3001032911.0,0.0,2.0,1.0,2.0,325.84022800006102,21.0,5.0,0.0
3001032911.0,0.0,3.0,1.0,3.0,399.03944999991796,21.0,5.0,1.0
3001032911.0,1.0,4.0,1.0,0.0,523.47704499993597,21.0,5.0,0.0
3001032911.0,0.0,1.0,1.0,1.0,612.33842299998287,22.0,5.0,0.0
3001032911.0,0.0,2.0,1.0,2.0,260.05165700007603,22.0,5.0,0.0
3001032911.0,0.0,3.0,1.0,3.0,377.09481199999601,22.0,5.0,0.0
3001032911.0,0.0,4.0,1.0,4.0,686.59624500014604,22.0,5.0,0.0
3001032911.0,0.0,5.0,1.0,5.0,584.76326400000301,22.0,5.0,1.0
3001032911.0,1.0,6.0,1.0,0.0,595.20282599987706,22.0,5.0,0.0
3001032911.0,0.0,1.0,1.0,1.0,422.06049700007497,23.0,5.0,0.0
3001032911.0,0.0,2.0,1.0,2.0,343.91078400017199,23.0,5.0,0.0
3001032911.0,0.0,3.0,1.0,3.0,332.20386700008891,23.0,5.0,0.0
3001032911.0,0.0,4.0,1.0,4.0,546.04576999986398,23.0,5.0,1.0
3001032911.0,1.0,5.0,1.0,0.0,1157.1835340000698,23.0,5.0,0.0
3001032911.0,0.0,1.0,1.0,1.0,305.48626699987801,25.0,5.0,0.0
3001032911.0,0.0,2.0,1.0,2.0,273.08072200003198,25.0,5.0,0.0
3001032911.0,0.0,3.0,1.0,3.0,272.10797300017504,25.0,5.0,0.0
3001032911.0,0.0,4.0,1.0,4.0,581.82675200009692,25.0,5.0,0.0
3001032911.0,0.0,5.0,1.0,5.0,279.78891399993699,25.0,5.0,0.0
3001032911.0,0.0,6.0,1.0,6.0,558.24138599996297,25.0,5.0,0.0
3001032911.0,0.0,7.0,1.0,7.0,1212.1569999999301,25.0,5.0,1.0
3001032911.0,1.0,8.0,1.0,0.0,505.85333799995203,25.0,5.0,0.0
3001032911.0,0.0,1.0,1.0,1.0,478.942335000056,26.0,5.0,0.0
3001032911.0,0.0,2.0,1.0,2.0,312.82128799989601,26.0,5.0,0.0
3001032911.0,0.0,3.0,1.0,3.0,330.18113800017102,26.0,5.0,0.0
3001032911.0,0.0,4.0,1.0,4.0,418.07122299997002,26.0,5.0,0.0
3001032911.0,0.0,5.0,1.0,5.0,295.69634400013501,26.0,5.0,0.0
3001032911.0,0.0,6.0,1.0,6.0,307.42869000005209,26.0,5.0,0.0
3001032911.0,0.0,7.0,1.0,7.0,424.75202400009897,26.0,5.0,0.0
3001032911.0,0.0,8.0,1.0,8.0,820.42874900002994,26.0,5.0,0.0
3001032911.0,0.0,9.0,1.0,9.0,816.43523399998219,26.0,5.0,2.0
3001032911.0,0.0,10.0,0.0,10.0,691.0260419999762,26.0,5.0,0.0
3001032911.0,0.0,1.0,1.0,1.0,1329.0848799999801,27.0,3.0,0.0
3001032911.0,1.0,2.0,1.0,0.0,0.0,27.0,3.0,0.0
3001032911.0,0.0,1.0,1.0,1.0,516.38606799997399,28.0,5.0,0.0
3001032911.0,0.0,2.0,1.0,2.0,367.23753799992704,28.0,5.0,0.0
3001032911.0,0.0,3.0,1.0,3.0,374.87229599992105,28.0,5.0,0.0
3001032911.0,0.0,4.0,1.0,4.0,472.92604699987396,28.0,5.0,1.0
3001032911.0,1.0,5.0,1.0,0.0,384.4155839999529,28.0,5.0,0.0
3001034711.0,0.0,1.0,1.0,1.0,472.76162099978995,2.0,5.0,0.0
3001034711.0,0.0,2.0,1.0,2.0,377.21057599992491,2.0,5.0,0.0
3001034711.0,0.0,3.0,1.0,3.0,616.85391199989704,2.0,5.0,0.0
3001034711.0,0.0,4.0,1.0,4.0,528.690731000097,2.0,5.0,2.0
3001034711.0,0.0,5.0,0.0,5.0,432.00060799995288,2.0,5.0,0.0
3001034711.0,0.0,1.0,1.0,1.0,489.37634899994003,6.0,3.0,0.0
3001034711.0,0.0,2.0,1.0,2.0,278.08313900004606,6.0,3.0,0.0
3001034711.0,0.0,3.0,1.0,3.0,319.87025300009009,6.0,3.0,1.0
3001034711.0,1.0,4.0,1.0,0.0,0.0,6.0,3.0,0.0
3001034711.0,0.0,1.0,1.0,1.0,349.52645500015899,7.0,5.0,0.0
3001034711.0,0.0,2.0,1.0,2.0,312.43028599988105,7.0,5.0,0.0
3001034711.0,0.0,3.0,1.0,3.0,344.426509999948,7.0,5.0,0.0
3001034711.0,0.0,4.0,1.0,4.0,440.83430299997389,7.0,5.0,2.0
3001034711.0,0.0,5.0,0.0,5.0,995.29416700011075,7.0,5.0,0.0
3001034711.0,0.0,1.0,1.0,1.0,647.79452600009802,8.0,3.0,0.0
3001034711.0,0.0,2.0,1.0,2.0,331.15254100016494,8.0,3.0,2.0
3001034711.0,0.0,3.0,0.0,3.0,0.0,8.0,3.0,0.0
3001034711.0,0.0,1.0,1.0,1.0,408.65225700008506,11.0,3.0,0.0
3001034711.0,0.0,2.0,1.0,2.0,411.92771900000497,11.0,3.0,2.0
3001034711.0,0.0,3.0,0.0,3.0,0.0,11.0,3.0,0.0
3001034711.0,0.0,1.0,1.0,1.0,614.52112300003103,13.0,3.0,0.0
3001034711.0,0.0,2.0,1.0,2.0,558.90960099986773,13.0,3.0,0.0
3001034711.0,0.0,3.0,1.0,3.0,371.64059499991714,13.0,3.0,0.0
3001034711.0,0.0,4.0,1.0,4.0,310.30899799998195,13.0,3.0,1.0
3001034711.0,1.0,5.0,1.0,0.0,0.0,13.0,3.0,0.0
3001034711.0,0.0,1.0,1.0,1.0,579.13366600018901,15.0,5.0,0.0
3001034711.0,0.0,2.0,1.0,2.0,386.26542100018889,15.0,5.0,1.0
3001034711.0,1.0,3.0,1.0,0.0,528.92038099980698,15.0,5.0,0.0
3001034711.0,0.0,1.0,1.0,1.0,581.44740600005207,18.0,5.0,0.0
3001034711.0,0.0,2.0,1.0,2.0,452.06785799996396,18.0,5.0,0.0
3001034711.0,0.0,3.0,1.0,3.0,438.84071100001199,18.0,5.0,0.0
3001034711.0,0.0,4.0,1.0,4.0,408.13049000007601,18.0,5.0,1.0
3001034711.0,1.0,5.0,1.0,0.0,799.32855700008099,18.0,5.0,0.0
3001034711.0,0.0,1.0,1.0,1.0,536.62951000023907,19.0,5.0,0.0
3001034711.0,0.0,2.0,1.0,2.0,366.26290599997401,19.0,5.0,0.0
3001034711.0,0.0,3.0,1.0,3.0,477.88673000013711,19.0,5.0,1.0
3001034711.0,1.0,4.0,1.0,0.0,453.92043499987295,19.0,5.0,0.0
3001034711.0,0.0,1.0,1.0,1.0,499.61611900016601,20.0,5.0,0.0
3001034711.0,0.0,2.0,1.0,2.0,395.36847399995202,20.0,5.0,0.0
3001034711.0,0.0,3.0,1.0,3.0,409.59745000009201,20.0,5.0,0.0
3001034711.0,0.0,4.0,1.0,4.0,408.82777299975692,20.0,5.0,0.0
3001034711.0,0.0,5.0,1.0,5.0,448.64132599968804,20.0,5.0,2.0
3001034711.0,0.0,6.0,0.0,6.0,610.47074099997212,20.0,5.0,0.0
3001034711.0,0.0,1.0,1.0,1.0,564.06456000013293,21.0,3.0,0.0
3001034711.0,0.0,2.0,1.0,2.0,520.31723599975498,21.0,3.0,0.0
3001034711.0,0.0,3.0,1.0,3.0,794.60489999973981,21.0,3.0,1.0
3001034711.0,1.0,4.0,1.0,0.0,0.0,21.0,3.0,0.0
3001034711.0,0.0,1.0,1.0,1.0,506.24029100026701,22.0,5.0,0.0
3001034711.0,0.0,2.0,1.0,2.0,764.65411199978894,22.0,5.0,1.0
3001034711.0,1.0,3.0,1.0,0.0,454.45115900020005,22.0,5.0,0.0
3001034711.0,0.0,1.0,1.0,1.0,736.14393500019992,23.0,5.0,0.0
3001034711.0,0.0,2.0,1.0,2.0,385.64193100000887,23.0,5.0,0.0
3001034711.0,0.0,3.0,1.0,3.0,582.292356999915,23.0,5.0,0.0
3001034711.0,0.0,4.0,1.0,4.0,339.67632800022301,23.0,5.0,0.0
3001034711.0,0.0,5.0,1.0,5.0,365.50955600023406,23.0,5.0,1.0
3001034711.0,1.0,6.0,1.0,0.0,362.74483099987299,23.0,5.0,0.0
3001034711.0,0.0,1.0,1.0,1.0,707.73449199987203,25.0,5.0,0.0
3001034711.0,0.0,2.0,1.0,2.0,678.80250400003194,25.0,5.0,0.0
3001034711.0,0.0,3.0,1.0,3.0,426.77759900016099,25.0,5.0,0.0
3001034711.0,0.0,4.0,1.0,4.0,560.60453399959397,25.0,5.0,1.0
3001034711.0,1.0,5.0,1.0,0.0,636.575286000152,25.0,5.0,0.0
3001034711.0,0.0,1.0,1.0,1.0,642.25752999982399,26.0,5.0,0.0
3001034711.0,0.0,2.0,1.0,2.0,362.52255599993106,26.0,5.0,0.0
3001034711.0,0.0,3.0,1.0,3.0,422.66598300011498,26.0,5.0,0.0
3001034711.0,0.0,4.0,1.0,4.0,646.06713100010904,26.0,5.0,1.0
3001034711.0,1.0,5.0,1.0,0.0,1042.1482480000998,26.0,5.0,0.0
3001034711.0,0.0,1.0,1.0,1.0,1037.0527139998599,27.0,5.0,0.0
3001034711.0,0.0,2.0,1.0,2.0,502.251079999951,27.0,5.0,0.0
3001034711.0,0.0,3.0,1.0,3.0,495.00178700009207,27.0,5.0,0.0
3001034711.0,0.0,4.0,1.0,4.0,409.87689099983999,27.0,5.0,0.0
3001034711.0,0.0,5.0,1.0,5.0,424.75140400028999,27.0,5.0,2.0
3001034711.0,0.0,6.0,0.0,6.0,639.73217100010493,27.0,5.0,0.0
3001034711.0,0.0,1.0,1.0,1.0,827.26380300027802,28.0,3.0,0.0
3001034711.0,0.0,2.0,1.0,2.0,492.60645699996496,28.0,3.0,1.0
3001034711.0,1.0,3.0,1.0,0.0,0.0,28.0,3.0,0.0
3001034711.0,0.0,1.0,1.0,1.0,896.93068800033916,29.0,5.0,0.0
3001034711.0,0.0,2.0,1.0,2.0,322.74718899998305,29.0,5.0,0.0
3001034711.0,0.0,3.0,1.0,3.0,403.04310999999899,29.0,5.0,0.0
3001034711.0,0.0,4.0,1.0,4.0,356.88378199984106,29.0,5.0,0.0
3001034711.0,0.0,5.0,1.0,5.0,398.93153999992097,29.0,5.0,0.0
3001034711.0,0.0,6.0,1.0,6.0,449.798674999784,29.0,5.0,1.0
3001034711.0,1.0,7.0,1.0,0.0,820.35447999987798,29.0,5.0,0.0
3001034711.0,0.0,1.0,1.0,1.0,866.51656900039598,30.0,5.0,0.0
3001034711.0,0.0,2.0,1.0,2.0,329.71057399981896,30.0,5.0,0.0
3001034711.0,0.0,3.0,1.0,3.0,498.44484200002603,30.0,5.0,2.0
3001034711.0,0.0,4.0,0.0,4.0,411.8438020000209,30.0,5.0,0.0
3001034711.0,0.0,1.0,1.0,1.0,536.41124300020203,31.0,3.0,0.0
3001034711.0,0.0,2.0,1.0,2.0,409.10392400019202,31.0,3.0,0.0
3001034711.0,0.0,3.0,1.0,3.0,464.23735700000196,31.0,3.0,0.0
3001034711.0,0.0,4.0,1.0,4.0,466.88066800015787,31.0,3.0,0.0
3001034711.0,0.0,5.0,1.0,5.0,423.75345599975799,31.0,3.0,0.0
3001034711.0,0.0,6.0,1.0,6.0,0.0,31.0,3.0,0.0
3001036511.0,0.0,1.0,1.0,1.0,1415.0995600000399,1.0,0.0,0.0
3001036511.0,0.0,2.0,1.0,2.0,566.16976300006206,1.0,0.0,1.0
3001036511.0,1.0,3.0,1.0,0.0,0.0,1.0,0.0,0.0
3001036511.0,0.0,1.0,1.0,1.0,658.06200800011493,3.0,5.0,0.0
3001036511.0,0.0,2.0,1.0,2.0,371.34929900002999,3.0,5.0,0.0
3001036511.0,0.0,3.0,1.0,3.0,563.62093400002789,3.0,5.0,0.0
3001036511.0,0.0,4.0,1.0,4.0,484.09037000010397,3.0,5.0,1.0
3001036511.0,1.0,5.0,1.0,0.0,574.76842100004399,3.0,5.0,0.0
3001036511.0,0.0,1.0,1.0,1.0,705.5773189999851,8.0,5.0,0.0
3001036511.0,0.0,2.0,1.0,2.0,525.94930600003011,8.0,5.0,0.0
3001036511.0,0.0,3.0,1.0,3.0,407.43744399992494,8.0,5.0,0.0
3001036511.0,0.0,4.0,1.0,4.0,370.04253300006002,8.0,5.0,0.0
3001036511.0,0.0,5.0,1.0,5.0,1118.1123609999302,8.0,5.0,1.0
3001036511.0,1.0,6.0,1.0,0.0,595.85969199997601,8.0,5.0,0.0
3001036511.0,0.0,1.0,1.0,1.0,761.46811600005992,10.0,5.0,0.0
3001036511.0,0.0,2.0,1.0,2.0,341.68066299980609,10.0,5.0,0.0
3001036511.0,0.0,3.0,1.0,3.0,375.21813400007898,10.0,5.0,0.0
3001036511.0,0.0,4.0,1.0,4.0,848.32014099993091,10.0,5.0,1.0
3001036511.0,1.0,5.0,1.0,0.0,716.55280499999208,10.0,5.0,0.0
3001036511.0,0.0,1.0,1.0,1.0,931.14865600000508,11.0,5.0,0.0
3001036511.0,0.0,2.0,1.0,2.0,341.98728799992801,11.0,5.0,0.0
3001036511.0,0.0,3.0,1.0,3.0,553.39146999995103,11.0,5.0,0.0
3001036511.0,0.0,4.0,1.0,4.0,841.41686199995991,11.0,5.0,0.0
3001036511.0,0.0,5.0,1.0,5.0,869.59183500016513,11.0,5.0,1.0
3001036511.0,1.0,6.0,1.0,0.0,646.70127500016895,11.0,5.0,0.0
3001036511.0,0.0,1.0,1.0,1.0,1123.1539139998899,12.0,5.0,0.0
3001036511.0,0.0,2.0,1.0,2.0,531.932846000018,12.0,5.0,0.0
3001036511.0,0.0,3.0,1.0,3.0,926.42726200006109,12.0,5.0,0.0
3001036511.0,0.0,4.0,1.0,4.0,320.16491699982896,12.0,5.0,0.0
3001036511.0,0.0,5.0,1.0,5.0,585.75416899998288,12.0,5.0,2.0
3001036511.0,0.0,6.0,0.0,6.0,582.8214370001208,12.0,5.0,0.0
3001036511.0,0.0,1.0,1.0,1.0,699.06202900006099,13.0,3.0,0.0
3001036511.0,0.0,2.0,1.0,2.0,449.81272499990206,13.0,3.0,0.0
3001036511.0,0.0,3.0,1.0,3.0,530.44802899989895,13.0,3.0,0.0
3001036511.0,0.0,4.0,1.0,4.0,409.45908099979499,13.0,3.0,1.0
3001036511.0,1.0,5.0,1.0,0.0,0.0,13.0,3.0,0.0
3001036511.0,0.0,1.0,1.0,1.0,629.65819199985219,14.0,5.0,0.0
3001036511.0,0.0,2.0,1.0,2.0,445.31691600013801,14.0,5.0,0.0
3001036511.0,0.0,3.0,1.0,3.0,348.89249100001501,14.0,5.0,0.0
3001036511.0,0.0,4.0,1.0,4.0,371.41860900010209,14.0,5.0,0.0
3001036511.0,0.0,5.0,1.0,5.0,522.08689799999797,14.0,5.0,2.0
3001036511.0,0.0,6.0,0.0,6.0,764.92831500013381,14.0,5.0,0.0
3001036511.0,0.0,1.0,1.0,1.0,459.13945099982789,15.0,3.0,0.0
3001036511.0,0.0,2.0,1.0,2.0,377.7760770001351,15.0,3.0,0.0
3001036511.0,0.0,3.0,1.0,3.0,967.46865799991588,15.0,3.0,0.0
3001036511.0,0.0,4.0,1.0,4.0,805.71847499982073,15.0,3.0,1.0
3001036511.0,1.0,5.0,1.0,0.0,0.0,15.0,3.0,0.0
3001036511.0,0.0,1.0,1.0,1.0,435.01904599997897,16.0,5.0,0.0
3001036511.0,0.0,2.0,1.0,2.0,303.37894600006609,16.0,5.0,0.0
3001036511.0,0.0,3.0,1.0,3.0,580.572880000091,16.0,5.0,0.0
3001036511.0,0.0,4.0,1.0,4.0,489.30660600012703,16.0,5.0,2.0
3001036511.0,0.0,5.0,0.0,5.0,357.31579399998708,16.0,5.0,0.0
3001036511.0,0.0,1.0,1.0,1.0,532.5539539999229,19.0,3.0,0.0
3001036511.0,0.0,2.0,1.0,2.0,356.10212899996401,19.0,3.0,2.0
3001036511.0,0.0,3.0,0.0,3.0,0.0,19.0,3.0,0.0
3001036511.0,0.0,1.0,1.0,1.0,376.71147300011404,20.0,3.0,0.0
3001036511.0,0.0,2.0,1.0,2.0,545.64840100010792,20.0,3.0,1.0
3001036511.0,1.0,3.0,1.0,0.0,0.0,20.0,3.0,0.0
3001036511.0,0.0,1.0,1.0,1.0,509.29571100004995,21.0,5.0,0.0
3001036511.0,0.0,2.0,1.0,2.0,383.13345800020204,21.0,5.0,0.0
3001036511.0,0.0,3.0,1.0,3.0,580.94414400011397,21.0,5.0,2.0
3001036511.0,0.0,4.0,0.0,4.0,312.74708099999799,21.0,5.0,0.0
3001036511.0,0.0,1.0,1.0,1.0,323.16329800005394,22.0,3.0,0.0
3001036511.0,0.0,2.0,1.0,2.0,281.93428999998099,22.0,3.0,0.0
3001036511.0,0.0,3.0,1.0,3.0,294.82595299987202,22.0,3.0,1.0
3001036511.0,1.0,4.0,1.0,0.0,0.0,22.0,3.0,0.0
3001036511.0,0.0,1.0,1.0,1.0,465.97088299995397,23.0,5.0,0.0
3001036511.0,0.0,2.0,1.0,2.0,177.16278600005401,23.0,5.0,0.0
3001036511.0,0.0,3.0,1.0,3.0,1082.5071560000199,23.0,5.0,1.0
3001036511.0,1.0,4.0,1.0,0.0,640.09638399988899,23.0,5.0,0.0
3001036511.0,0.0,1.0,1.0,1.0,291.25598199993891,24.0,5.0,0.0
3001036511.0,0.0,2.0,1.0,2.0,313.06493300007804,24.0,5.0,0.0
3001036511.0,0.0,3.0,1.0,3.0,456.27011500005204,24.0,5.0,1.0
3001036511.0,1.0,4.0,1.0,0.0,390.33488299992302,24.0,5.0,0.0
3001036511.0,0.0,1.0,1.0,1.0,1201.1885039999001,25.0,5.0,0.0
3001036511.0,0.0,2.0,1.0,2.0,608.21187000010502,25.0,5.0,0.0
3001036511.0,0.0,3.0,1.0,3.0,774.4424089999028,25.0,5.0,0.0
3001036511.0,0.0,4.0,1.0,4.0,870.931006000092,25.0,5.0,0.0
3001043811.0,0.0,1.0,1.0,1.0,920.72590299903788,1.0,0.0,1.0
3001043811.0,1.0,2.0,1.0,0.0,0.0,1.0,0.0,0.0
3001043811.0,0.0,1.0,1.0,1.0,918.10705900024902,3.0,5.0,0.0
3001043811.0,0.0,2.0,1.0,2.0,523.41291199991201,3.0,5.0,0.0
3001043811.0,0.0,3.0,1.0,3.0,565.15991300147982,3.0,5.0,1.0
3001043811.0,1.0,4.0,1.0,0.0,1232.89055700116,3.0,5.0,0.0
3001043811.0,0.0,1.0,1.0,1.0,386.17494400023099,4.0,5.0,0.0
3001043811.0,0.0,2.0,1.0,2.0,304.54956599896803,4.0,5.0,0.0
3001043811.0,0.0,3.0,1.0,3.0,436.63509900034103,4.0,5.0,0.0
3001043811.0,0.0,4.0,1.0,4.0,580.25967600042293,4.0,5.0,1.0
3001043811.0,1.0,5.0,1.0,0.0,960.38511700135098,4.0,5.0,0.0
3001043811.0,0.0,1.0,1.0,1.0,517.46858000115003,5.0,5.0,0.0
3001043811.0,0.0,2.0,1.0,2.0,403.30275300038903,5.0,5.0,0.0
3001043811.0,0.0,3.0,1.0,3.0,313.891604000673,5.0,5.0,0.0
3001043811.0,0.0,4.0,1.0,4.0,426.21292300100288,5.0,5.0,1.0
3001043811.0,1.0,5.0,1.0,0.0,1163.5023159997199,5.0,5.0,0.0
3001043811.0,0.0,1.0,1.0,1.0,562.76961900039214,6.0,5.0,0.0
3001043811.0,0.0,2.0,1.0,2.0,258.50990199978696,6.0,5.0,0.0
3001043811.0,0.0,3.0,1.0,3.0,420.97579900109804,6.0,5.0,0.0
3001043811.0,0.0,4.0,1.0,4.0,531.73780799988901,6.0,5.0,0.0
3001043811.0,0.0,5.0,1.0,5.0,714.65761599938594,6.0,5.0,1.0
3001043811.0,1.0,6.0,1.0,0.0,1045.1153390003999,6.0,5.0,0.0
3001043811.0,0.0,1.0,1.0,1.0,412.14225300063799,7.0,5.0,0.0
3001043811.0,0.0,2.0,1.0,2.0,296.55056400042702,7.0,5.0,0.0
3001043811.0,0.0,3.0,1.0,3.0,237.12074300056,7.0,5.0,0.0
3001043811.0,0.0,4.0,1.0,4.0,312.63262500033301,7.0,5.0,0.0
3001043811.0,0.0,5.0,1.0,5.0,401.30316999966482,7.0,5.0,0.0
3001043811.0,0.0,6.0,1.0,6.0,952.8037239997501,7.0,5.0,1.0
3001043811.0,1.0,7.0,1.0,0.0,879.09283100088908,7.0,5.0,0.0
3001043811.0,0.0,1.0,1.0,1.0,363.93280499942205,8.0,5.0,0.0
3001043811.0,0.0,2.0,1.0,2.0,318.56453799991903,8.0,5.0,0.0
3001043811.0,0.0,3.0,1.0,3.0,301.76346300140699,8.0,5.0,0.0
3001043811.0,0.0,4.0,1.0,4.0,288.12906500024798,8.0,5.0,0.0
3001043811.0,0.0,5.0,1.0,5.0,333.11662900087003,8.0,5.0,0.0
3001043811.0,0.0,6.0,1.0,6.0,443.69909300075994,8.0,5.0,1.0
3001043811.0,1.0,7.0,1.0,0.0,1369.1938669999199,8.0,5.0,0.0
3001043811.0,0.0,1.0,1.0,1.0,322.1381530001961,9.0,5.0,0.0
3001043811.0,0.0,2.0,1.0,2.0,306.95420699885301,9.0,5.0,0.0
3001043811.0,0.0,3.0,1.0,3.0,237.10698800096,9.0,5.0,0.0
3001043811.0,0.0,4.0,1.0,4.0,316.436316999898,9.0,5.0,0.0
3001043811.0,0.0,5.0,1.0,5.0,307.316820999404,9.0,5.0,0.0
3001043811.0,0.0,6.0,1.0,6.0,323.28233000043798,9.0,5.0,0.0
3001043811.0,0.0,7.0,1.0,7.0,363.03268199844803,9.0,5.0,2.0
3001043811.0,0.0,8.0,0.0,8.0,1180.3165300007099,9.0,5.0,0.0
3001043811.0,0.0,1.0,1.0,1.0,486.72159400120995,10.0,3.0,0.0
3001043811.0,0.0,2.0,1.0,2.0,264.31920600043702,10.0,3.0,0.0
3001043811.0,0.0,3.0,1.0,3.0,246.40662399906398,10.0,3.0,0.0
3001043811.0,0.0,4.0,1.0,4.0,264.277742999184,10.0,3.0,0.0
3001043811.0,0.0,5.0,1.0,5.0,262.11957099985699,10.0,3.0,0.0
3001043811.0,0.0,6.0,1.0,6.0,358.38008300015605,10.0,3.0,0.0
3001043811.0,0.0,7.0,1.0,7.0,355.57309900104906,10.0,3.0,0.0
3001043811.0,0.0,8.0,1.0,8.0,322.07874300002004,10.0,3.0,2.0
3001043811.0,0.0,9.0,0.0,9.0,0.0,10.0,3.0,0.0
3001043811.0,0.0,1.0,1.0,1.0,491.94583999997099,11.0,3.0,0.0
3001043811.0,0.0,2.0,1.0,2.0,265.83774400023697,11.0,3.0,0.0
3001043811.0,0.0,3.0,1.0,3.0,286.64042900163599,11.0,3.0,0.0
3001043811.0,0.0,4.0,1.0,4.0,283.87922000001691,11.0,3.0,0.0
3001043811.0,0.0,5.0,1.0,5.0,388.69472199985495,11.0,3.0,1.0
3001043811.0,1.0,6.0,1.0,0.0,0.0,11.0,3.0,0.0
3001043811.0,0.0,1.0,1.0,1.0,465.34321399849387,13.0,5.0,0.0
3001043811.0,0.0,2.0,1.0,2.0,273.48044200152799,13.0,5.0,0.0
3001043811.0,0.0,3.0,1.0,3.0,295.37797199918703,13.0,5.0,0.0
3001043811.0,0.0,4.0,1.0,4.0,296.94851000022004,13.0,5.0,0.0
3001043811.0,0.0,5.0,1.0,5.0,375.47419899965502,13.0,5.0,1.0
3001043811.0,1.0,6.0,1.0,0.0,1248.7140619996401,13.0,5.0,0.0
3001043811.0,0.0,1.0,1.0,1.0,391.99620099861903,14.0,5.0,0.0
3001043811.0,0.0,2.0,1.0,2.0,307.438281000941,14.0,5.0,0.0
3001043811.0,0.0,3.0,1.0,3.0,277.17973699873301,14.0,5.0,0.0
3001043811.0,0.0,4.0,1.0,4.0,331.05991199954605,14.0,5.0,0.0
3001043811.0,0.0,5.0,1.0,5.0,605.94059400136791,14.0,5.0,1.0
3001043811.0,1.0,6.0,1.0,0.0,630.92460699954199,14.0,5.0,0.0
3001043811.0,0.0,1.0,1.0,1.0,433.362092999232,17.0,5.0,0.0
3001043811.0,0.0,2.0,1.0,2.0,285.381555999265,17.0,5.0,0.0
3001043811.0,0.0,3.0,1.0,3.0,285.24227799971402,17.0,5.0,0.0
3001043811.0,0.0,4.0,1.0,4.0,297.52037400066899,17.0,5.0,0.0
3001043811.0,0.0,5.0,1.0,5.0,487.35956100063004,17.0,5.0,1.0
3001043811.0,1.0,6.0,1.0,0.0,593.350836999889,17.0,5.0,0.0
3001043811.0,0.0,1.0,1.0,1.0,433.36289499893599,18.0,5.0,0.0
3001043811.0,0.0,2.0,1.0,2.0,266.08823500100698,18.0,5.0,0.0
3001043811.0,0.0,3.0,1.0,3.0,343.76264599995903,18.0,5.0,0.0
3001043811.0,0.0,4.0,1.0,4.0,286.55155600063205,18.0,5.0,0.0
3001043811.0,0.0,5.0,1.0,5.0,273.82220599975,18.0,5.0,0.0
3001043811.0,0.0,6.0,1.0,6.0,324.09544099937199,18.0,5.0,2.0
3001043811.0,0.0,7.0,0.0,7.0,445.26862900056602,18.0,5.0,0.0
3001043811.0,0.0,1.0,1.0,1.0,343.40404899921901,21.0,3.0,0.0
3001043811.0,0.0,2.0,1.0,2.0,255.84777400035802,21.0,3.0,0.0
3001043811.0,0.0,3.0,1.0,3.0,270.85217500098202,21.0,3.0,0.0
3001043811.0,0.0,4.0,1.0,4.0,250.58823799918201,21.0,3.0,0.0
3001043811.0,0.0,5.0,1.0,5.0,309.05973900007695,21.0,3.0,0.0
3001043811.0,0.0,6.0,1.0,6.0,614.92488099975208,21.0,3.0,2.0
3001043811.0,0.0,7.0,0.0,7.0,0.0,21.0,3.0,0.0
3001043811.0,0.0,1.0,1.0,1.0,351.90763900027395,22.0,3.0,0.0
3001043811.0,0.0,2.0,1.0,2.0,284.02293900035102,22.0,3.0,0.0
3001043811.0,0.0,3.0,1.0,3.0,313.11689100039098,22.0,3.0,0.0
3001043811.0,0.0,4.0,1.0,4.0,292.265992999091,22.0,3.0,0.0
3001043811.0,0.0,5.0,1.0,5.0,375.87752199942804,22.0,3.0,2.0
3001043811.0,0.0,6.0,0.0,6.0,0.0,22.0,3.0,0.0
3001043811.0,0.0,1.0,1.0,1.0,722.81024900075897,24.0,3.0,0.0
3001043811.0,1.0,2.0,1.0,0.0,0.0,24.0,3.0,0.0
3001043811.0,0.0,1.0,1.0,1.0,408.51054799895792,26.0,5.0,0.0
3001043811.0,0.0,2.0,1.0,2.0,259.016234000228,26.0,5.0,0.0
3001043811.0,0.0,3.0,1.0,3.0,296.01214800095505,26.0,5.0,0.0
3001043811.0,0.0,4.0,1.0,4.0,289.27441400082898,26.0,5.0,0.0
3001043811.0,0.0,5.0,1.0,5.0,405.8269099987229,26.0,5.0,0.0
3001043811.0,0.0,6.0,1.0,6.0,1974.9811180008701,26.0,5.0,2.0
3001043811.0,0.0,7.0,0.0,7.0,639.60283500091498,26.0,5.0,0.0
3001043811.0,0.0,1.0,1.0,1.0,373.79409399909491,27.0,3.0,0.0
3001043811.0,0.0,2.0,1.0,2.0,251.449837000109,27.0,3.0,0.0
3001043811.0,0.0,3.0,1.0,3.0,261.22329499958101,27.0,3.0,0.0
3001043811.0,0.0,4.0,1.0,4.0,283.18468100042099,27.0,3.0,0.0
3001043811.0,0.0,5.0,1.0,5.0,0.0,27.0,3.0,0.0
3001044011.0,0.0,1.0,1.0,1.0,936.70782100002668,1.0,0.0,0.0
3001044011.0,0.0,2.0,1.0,2.0,586.88677600002779,1.0,0.0,0.0
3001044011.0,0.0,3.0,1.0,3.0,507.32842200000107,1.0,0.0,0.0
3001044011.0,0.0,4.0,1.0,4.0,439.94032999989889,1.0,0.0,1.0
3001044011.0,1.0,5.0,1.0,0.0,0.0,1.0,0.0,0.0
3001044011.0,0.0,1.0,1.0,1.0,382.66735199999891,2.0,5.0,0.0
3001044011.0,0.0,2.0,1.0,2.0,337.286617000018,2.0,5.0,0.0
3001044011.0,0.0,3.0,1.0,3.0,309.4301029998411,2.0,5.0,0.0
3001044011.0,0.0,4.0,1.0,4.0,334.46355099999903,2.0,5.0,0.0
3001044011.0,0.0,5.0,1.0,5.0,374.77327300007295,2.0,5.0,2.0
3001044011.0,0.0,6.0,0.0,6.0,351.92663499992699,2.0,5.0,0.0
3001044011.0,0.0,1.0,1.0,1.0,462.46993900013001,3.0,3.0,0.0
3001044011.0,0.0,2.0,1.0,2.0,285.31498899997104,3.0,3.0,0.0
3001044011.0,0.0,3.0,1.0,3.0,353.84042499981695,3.0,3.0,0.0
3001044011.0,0.0,4.0,1.0,4.0,634.65717400004019,3.0,3.0,0.0
3001044011.0,0.0,5.0,1.0,5.0,257.90145700011601,3.0,3.0,2.0
3001044011.0,0.0,6.0,0.0,6.0,0.0,3.0,3.0,0.0
3001044011.0,0.0,1.0,1.0,1.0,309.72981499985491,4.0,3.0,0.0
3001044011.0,0.0,2.0,1.0,2.0,347.70000000003199,4.0,3.0,0.0
3001044011.0,0.0,3.0,1.0,3.0,284.49927599990599,4.0,3.0,0.0
3001044011.0,0.0,4.0,1.0,4.0,300.78677699998491,4.0,3.0,0.0
3001044011.0,0.0,5.0,1.0,5.0,254.12110100000999,4.0,3.0,0.0
3001044011.0,0.0,6.0,1.0,6.0,293.65524900003896,4.0,3.0,2.0
3001044011.0,0.0,7.0,0.0,7.0,0.0,4.0,3.0,0.0
3001044011.0,0.0,1.0,1.0,1.0,354.98456200002715,5.0,3.0,0.0
3001044011.0,1.0,2.0,1.0,0.0,0.0,5.0,3.0,0.0
3001044011.0,0.0,1.0,1.0,1.0,344.43984399990813,7.0,5.0,0.0
3001044011.0,0.0,2.0,1.0,2.0,251.66997700012001,7.0,5.0,0.0
3001044011.0,0.0,3.0,1.0,3.0,441.17000599999301,7.0,5.0,0.0
3001044011.0,0.0,4.0,1.0,4.0,265.87887200002996,7.0,5.0,0.0
3001044011.0,0.0,5.0,1.0,5.0,514.17740500005482,7.0,5.0,2.0
3001044011.0,0.0,6.0,0.0,6.0,362.54308799993896,7.0,5.0,0.0
3001044011.0,0.0,1.0,1.0,1.0,293.45933300010103,8.0,3.0,0.0
3001044011.0,0.0,2.0,1.0,2.0,347.0015080001761,8.0,3.0,0.0
3001044011.0,0.0,3.0,1.0,3.0,259.22683099997801,8.0,3.0,0.0
3001044011.0,0.0,4.0,1.0,4.0,278.44316800019402,8.0,3.0,0.0
3001044011.0,0.0,5.0,1.0,5.0,240.11176099998002,8.0,3.0,2.0
3001044011.0,0.0,6.0,0.0,6.0,0.0,8.0,3.0,0.0
3001044011.0,0.0,1.0,1.0,1.0,300.02164100005797,9.0,3.0,0.0
3001044011.0,0.0,2.0,1.0,2.0,232.80421100002999,9.0,3.0,2.0
3001044011.0,0.0,3.0,0.0,3.0,0.0,9.0,3.0,0.0
3001044011.0,0.0,1.0,1.0,1.0,277.65500300006403,10.0,3.0,0.0
3001044011.0,0.0,2.0,1.0,2.0,262.597134000089,10.0,3.0,1.0
3001044011.0,1.0,3.0,1.0,0.0,0.0,10.0,3.0,0.0
3001044011.0,0.0,1.0,1.0,1.0,297.43813799996099,11.0,5.0,0.0
3001044011.0,0.0,2.0,1.0,2.0,307.52688000006896,11.0,5.0,0.0
3001044011.0,0.0,3.0,1.0,3.0,296.41053300019797,11.0,5.0,2.0
3001044011.0,0.0,4.0,0.0,4.0,359.97917999998202,11.0,5.0,0.0
3001044011.0,0.0,1.0,1.0,1.0,354.956411000103,13.0,3.0,0.0
3001044011.0,0.0,2.0,1.0,2.0,291.16917800001801,13.0,3.0,0.0
3001044011.0,0.0,3.0,1.0,3.0,305.65797899998904,13.0,3.0,2.0
3001044011.0,0.0,4.0,0.0,4.0,0.0,13.0,3.0,0.0
3001044011.0,0.0,1.0,1.0,1.0,276.25335800007599,14.0,3.0,0.0
3001044011.0,0.0,2.0,1.0,2.0,248.13053200000505,14.0,3.0,0.0
3001044011.0,0.0,3.0,1.0,3.0,259.62079900000401,14.0,3.0,1.0
3001044011.0,1.0,4.0,1.0,0.0,0.0,14.0,3.0,0.0
3001044011.0,0.0,1.0,1.0,1.0,249.92015799989497,15.0,5.0,0.0
3001044011.0,0.0,2.0,1.0,2.0,268.53916400000304,15.0,5.0,0.0
3001044011.0,0.0,3.0,1.0,3.0,285.59236099999896,15.0,5.0,1.0
3001044011.0,1.0,4.0,1.0,0.0,307.20467900005099,15.0,5.0,0.0
3001044011.0,0.0,1.0,1.0,1.0,316.99242200011201,18.0,5.0,0.0
3001044011.0,0.0,2.0,1.0,2.0,255.13676000014098,18.0,5.0,0.0
3001044011.0,0.0,3.0,1.0,3.0,285.17971099995509,18.0,5.0,1.0
3001044011.0,1.0,4.0,1.0,0.0,422.75719899998893,18.0,5.0,0.0
3001044011.0,0.0,1.0,1.0,1.0,527.04547200005402,19.0,5.0,0.0
3001044011.0,0.0,2.0,1.0,2.0,346.00169899999895,19.0,5.0,0.0
3001044011.0,0.0,3.0,1.0,3.0,449.83740699990403,19.0,5.0,0.0
3001044011.0,0.0,4.0,1.0,4.0,280.69005099996497,19.0,5.0,2.0
3001044011.0,0.0,5.0,0.0,5.0,351.512390999915,19.0,5.0,0.0
3001044011.0,0.0,1.0,1.0,1.0,1176.76410900003,22.0,3.0,0.0
3001044011.0,0.0,2.0,1.0,2.0,426.24148999993798,22.0,3.0,1.0
3001044011.0,1.0,3.0,1.0,0.0,0.0,22.0,3.0,0.0
3001044011.0,0.0,1.0,1.0,1.0,410.4546839998871,23.0,5.0,0.0
3001044011.0,0.0,2.0,1.0,2.0,288.06266499987004,23.0,5.0,0.0
3001044011.0,0.0,3.0,1.0,3.0,278.00939999997399,23.0,5.0,1.0
3001044011.0,1.0,4.0,1.0,0.0,370.73300599968201,23.0,5.0,0.0
3001044011.0,0.0,1.0,1.0,1.0,508.21151999980401,25.0,5.0,0.0
3001044011.0,0.0,2.0,1.0,2.0,447.80565199971511,25.0,5.0,0.0
3001044011.0,0.0,3.0,1.0,3.0,293.47137700005999,25.0,5.0,2.0
3001044011.0,0.0,4.0,0.0,4.0,281.47128000000498,25.0,5.0,0.0
3001044011.0,0.0,1.0,1.0,1.0,308.18375099988799,26.0,3.0,0.0
3001044011.0,0.0,2.0,1.0,2.0,371.48240999977088,26.0,3.0,0.0
3001044011.0,0.0,3.0,1.0,3.0,314.965174999998,26.0,3.0,0.0
3001044011.0,0.0,4.0,1.0,4.0,296.22503100017605,26.0,3.0,2.0
3001044011.0,0.0,5.0,0.0,5.0,0.0,26.0,3.0,0.0
3001044011.0,0.0,1.0,1.0,1.0,300.86415899995694,27.0,3.0,0.0
3001044011.0,0.0,2.0,1.0,2.0,433.87028799998001,27.0,3.0,1.0
3001044011.0,1.0,3.0,1.0,0.0,0.0,27.0,3.0,0.0
3001044011.0,0.0,1.0,1.0,1.0,378.71533999987196,28.0,5.0,0.0
3001044011.0,0.0,2.0,1.0,2.0,276.52237600023,28.0,5.0,0.0
3001044011.0,0.0,3.0,1.0,3.0,436.173627999779,28.0,5.0,1.0
3001044011.0,1.0,4.0,1.0,0.0,320.73950999983896,28.0,5.0,0.0
3001044011.0,0.0,1.0,1.0,1.0,424.88002000027291,30.0,5.0,0.0
3001044011.0,0.0,2.0,1.0,2.0,361.40246800005099,30.0,5.0,0.0
3001044011.0,0.0,3.0,1.0,3.0,277.40399100002804,30.0,5.0,0.0
3001044011.0,0.0,4.0,1.0,4.0,400.41961099996104,30.0,5.0,2.0
3001044011.0,0.0,5.0,0.0,5.0,517.66914000017994,30.0,5.0,0.0
3001044811.0,0.0,1.0,1.0,1.0,647.41381199996806,2.0,3.0,0.0
3001044811.0,0.0,2.0,1.0,2.0,364.220366999916,2.0,3.0,0.0
3001044811.0,0.0,3.0,1.0,3.0,289.76947599994702,2.0,3.0,0.0
3001044811.0,0.0,4.0,1.0,4.0,392.29020099992289,2.0,3.0,0.0
3001044811.0,0.0,5.0,1.0,5.0,424.61923800010493,2.0,3.0,0.0
3001044811.0,0.0,6.0,1.0,6.0,430.8971749999269,2.0,3.0,0.0
3001044811.0,0.0,7.0,1.0,7.0,422.61490099986099,2.0,3.0,2.0
3001044811.0,0.0,8.0,0.0,8.0,0.0,2.0,3.0,0.0
3001044811.0,0.0,1.0,1.0,1.0,390.54020800017491,3.0,3.0,0.0
3001044811.0,0.0,2.0,0.0,2.0,0.0,3.0,3.0,0.0
3001044811.0,0.0,1.0,1.0,1.0,425.79975399985398,4.0,3.0,0.0
3001044811.0,0.0,2.0,1.0,2.0,697.55778199987594,4.0,3.0,0.0
3001044811.0,0.0,3.0,1.0,3.0,724.92534200000591,4.0,3.0,0.0
3001044811.0,0.0,4.0,1.0,4.0,435.00816400000997,4.0,3.0,0.0
3001044811.0,0.0,5.0,1.0,5.0,922.67341199999498,4.0,3.0,2.0
3001044811.0,0.0,6.0,0.0,6.0,0.0,4.0,3.0,0.0
3001044811.0,0.0,1.0,1.0,1.0,403.40556299997803,5.0,3.0,0.0
3001044811.0,0.0,2.0,1.0,2.0,352.81054400002205,5.0,3.0,0.0
3001044811.0,0.0,3.0,1.0,3.0,464.62758899997397,5.0,3.0,2.0
3001044811.0,0.0,4.0,0.0,4.0,0.0,5.0,3.0,0.0
3001044811.0,0.0,1.0,1.0,1.0,863.74020299990707,6.0,3.0,0.0
3001044811.0,0.0,2.0,0.0,2.0,0.0,6.0,3.0,0.0
3001044811.0,0.0,1.0,1.0,1.0,451.01949400009295,7.0,3.0,0.0
3001044811.0,0.0,2.0,1.0,2.0,523.22487399987881,7.0,3.0,0.0
3001044811.0,0.0,3.0,1.0,3.0,280.27847299995301,7.0,3.0,1.0
3001044811.0,1.0,4.0,1.0,0.0,0.0,7.0,3.0,0.0
3001044811.0,1.0,1.0,1.0,0.0,680.30724299978795,8.0,5.0,0.0
3001044811.0,0.0,1.0,1.0,1.0,566.66433299983498,9.0,5.0,0.0
3001044811.0,0.0,2.0,1.0,2.0,424.03366999997206,9.0,5.0,1.0
3001044811.0,1.0,3.0,1.0,0.0,480.66483299999197,9.0,5.0,0.0
3001044811.0,0.0,1.0,1.0,1.0,450.69005300001692,11.0,5.0,0.0
3001044811.0,0.0,2.0,1.0,2.0,395.57676599997598,11.0,5.0,0.0
3001044811.0,0.0,3.0,1.0,3.0,405.56743599972799,11.0,5.0,0.0
3001044811.0,0.0,4.0,1.0,4.0,507.22872799997282,11.0,5.0,0.0
3001044811.0,0.0,5.0,1.0,5.0,392.92826700011597,11.0,5.0,1.0
3001044811.0,1.0,6.0,1.0,0.0,562.63809800020704,11.0,5.0,0.0
3001044811.0,0.0,1.0,1.0,1.0,411.40986800019203,12.0,5.0,0.0
3001044811.0,0.0,2.0,1.0,2.0,314.54787800021199,12.0,5.0,0.0
3001044811.0,0.0,3.0,1.0,3.0,329.86907600025,12.0,5.0,0.0
3001044811.0,0.0,4.0,1.0,4.0,435.13918400003604,12.0,5.0,0.0
3001044811.0,0.0,5.0,1.0,5.0,388.875368999834,12.0,5.0,1.0
3001044811.0,1.0,6.0,1.0,0.0,463.20163700011102,12.0,5.0,0.0
3001044811.0,0.0,1.0,1.0,1.0,489.64931299997289,13.0,5.0,0.0
3001044811.0,0.0,2.0,1.0,2.0,445.00811299985804,13.0,5.0,0.0
3001044811.0,0.0,3.0,1.0,3.0,477.3838270002671,13.0,5.0,0.0
3001044811.0,0.0,4.0,1.0,4.0,615.4355339999712,13.0,5.0,0.0
3001044811.0,0.0,5.0,1.0,5.0,871.40120599997294,13.0,5.0,1.0
3001044811.0,1.0,6.0,1.0,0.0,735.61653599972499,13.0,5.0,0.0
3001044811.0,0.0,1.0,1.0,1.0,899.98246400000392,15.0,5.0,0.0
3001044811.0,0.0,2.0,1.0,2.0,467.56500799983786,15.0,5.0,0.0
3001044811.0,0.0,3.0,1.0,3.0,466.45186500018099,15.0,5.0,0.0
3001044811.0,0.0,4.0,1.0,4.0,1622.1720589996899,15.0,5.0,0.0
3001044811.0,0.0,5.0,1.0,5.0,442.72676999980797,15.0,5.0,1.0
3001044811.0,1.0,6.0,1.0,0.0,433.21361599964797,15.0,5.0,0.0
3001044811.0,0.0,1.0,1.0,1.0,381.44385899977402,16.0,5.0,0.0
3001044811.0,0.0,2.0,1.0,2.0,521.30180700032702,16.0,5.0,0.0
3001044811.0,0.0,3.0,1.0,3.0,333.61216800040006,16.0,5.0,0.0
3001044811.0,0.0,4.0,1.0,4.0,407.67472700008506,16.0,5.0,0.0
3001044811.0,0.0,5.0,1.0,5.0,455.43274500005305,16.0,5.0,0.0
3001044811.0,0.0,6.0,1.0,6.0,487.38574099979797,16.0,5.0,1.0
3001044811.0,1.0,7.0,1.0,0.0,548.55557399969302,16.0,5.0,0.0
3001044811.0,0.0,1.0,1.0,1.0,618.93347399973209,17.0,5.0,0.0
3001044811.0,0.0,2.0,1.0,2.0,430.69512800002502,17.0,5.0,0.0
3001044811.0,0.0,3.0,1.0,3.0,321.81971499994705,17.0,5.0,0.0
3001044811.0,0.0,4.0,1.0,4.0,335.51168299982203,17.0,5.0,0.0
3001044811.0,0.0,5.0,1.0,5.0,320.66356999985101,17.0,5.0,0.0
3001044811.0,0.0,6.0,1.0,6.0,439.396847999888,17.0,5.0,2.0
3001044811.0,0.0,7.0,0.0,7.0,580.66732899987994,17.0,5.0,0.0
3001044811.0,0.0,1.0,1.0,1.0,891.06275299991501,18.0,3.0,0.0
3001044811.0,1.0,2.0,1.0,0.0,0.0,18.0,3.0,0.0
3001044811.0,0.0,1.0,1.0,1.0,406.60271599972486,22.0,5.0,0.0
3001044811.0,0.0,2.0,1.0,2.0,366.933911999695,22.0,5.0,0.0
3001044811.0,0.0,3.0,1.0,3.0,378.348966999965,22.0,5.0,0.0
3001044811.0,0.0,4.0,1.0,4.0,337.25375800031503,22.0,5.0,0.0
3001044811.0,0.0,5.0,1.0,5.0,361.30645200000799,22.0,5.0,0.0
3001044811.0,0.0,6.0,1.0,6.0,972.28426500032595,22.0,5.0,1.0
3001044811.0,1.0,7.0,1.0,0.0,513.37746499984883,22.0,5.0,0.0
3001044811.0,0.0,1.0,1.0,1.0,881.10801600032596,24.0,5.0,0.0
3001044811.0,0.0,2.0,1.0,2.0,759.26193799978091,24.0,5.0,0.0
3001044811.0,0.0,3.0,1.0,3.0,646.78806099982489,24.0,5.0,0.0
3001044811.0,0.0,4.0,1.0,4.0,301.88181399989799,24.0,5.0,0.0
3001044811.0,0.0,5.0,1.0,5.0,457.06066999991896,24.0,5.0,0.0
3001044811.0,0.0,6.0,1.0,6.0,442.09699500015603,24.0,5.0,0.0
3001046011.0,0.0,1.0,1.0,1.0,895.03830199964796,1.0,0.0,1.0
3001046011.0,1.0,2.0,1.0,0.0,0.0,1.0,0.0,0.0
3001046011.0,0.0,1.0,1.0,1.0,460.17537200032206,3.0,5.0,0.0
3001046011.0,0.0,2.0,1.0,2.0,305.32369299999101,3.0,5.0,0.0
3001046011.0,0.0,3.0,1.0,3.0,1062.5330389998501,3.0,5.0,1.0
3001046011.0,1.0,4.0,1.0,0.0,660.31480199990301,3.0,5.0,0.0
3001046011.0,0.0,1.0,1.0,1.0,378.97002299996495,6.0,5.0,0.0
3001046011.0,0.0,2.0,1.0,2.0,923.47545799975694,6.0,5.0,1.0
3001046011.0,1.0,3.0,1.0,0.0,732.32795500007296,6.0,5.0,0.0
3001046011.0,0.0,1.0,1.0,1.0,480.63807800008402,7.0,5.0,0.0
3001046011.0,0.0,2.0,1.0,2.0,545.50565499994298,7.0,5.0,0.0
3001046011.0,0.0,3.0,1.0,3.0,367.097536000074,7.0,5.0,0.0
3001046011.0,0.0,4.0,1.0,4.0,417.95355800013601,7.0,5.0,1.0
3001046011.0,1.0,5.0,1.0,0.0,548.17232300001706,7.0,5.0,0.0
3001046011.0,0.0,1.0,1.0,1.0,422.56196700009201,8.0,5.0,0.0
3001046011.0,0.0,2.0,1.0,2.0,1350.2075520000301,8.0,5.0,0.0
3001046011.0,0.0,3.0,1.0,3.0,1186.2917240000602,8.0,5.0,2.0
3001046011.0,0.0,4.0,0.0,4.0,468.90728499965894,8.0,5.0,0.0
3001046011.0,0.0,1.0,1.0,1.0,503.79736299964895,10.0,3.0,0.0
3001046011.0,0.0,2.0,1.0,2.0,450.20120099980005,10.0,3.0,0.0
3001046011.0,0.0,3.0,1.0,3.0,590.88154300025099,10.0,3.0,0.0
3001046011.0,0.0,4.0,1.0,4.0,1265.4355609997799,10.0,3.0,1.0
3001046011.0,1.0,5.0,1.0,0.0,0.0,10.0,3.0,0.0
3001046011.0,0.0,1.0,1.0,1.0,369.90450299981597,11.0,5.0,0.0
3001046011.0,0.0,2.0,1.0,2.0,354.21438699995599,11.0,5.0,0.0
3001046011.0,0.0,3.0,1.0,3.0,360.08169400020103,11.0,5.0,1.0
3001046011.0,1.0,4.0,1.0,0.0,376.30556800013397,11.0,5.0,0.0
